run_id,condition,success,trial_type,trial_index,time_elapsed,internal_node_id,id,distance,width,train_repeats,card_width_px,condition,value,final_width_px,scale_factor,item_width,pixels_unit_screen,pixels_per_unit,animation_sequence,responses,rt,stimulus,stimulus_side,key_press,acc,animation_performance,bProblem,sProblem,trial_began,training,timing_response,fade_out_time,fade_in_time,fade_out_length,stimulus_alpha,timing_post_trial,within_ITI,trial,button_pressed,col_row_answers,cb_trial,correct_response,question_order,recorded_at,ip,user_agent,device,browser,browser_version,platform,platform_version
1,1,TRUE,fullscreen,0,2661,0.0-0.0-0.0,yuval,28.301,387,1,387,2,"""","""","""","""","""","""","""","""","""","""","""","""","""","""","""","""","""","""","""","""","""","""","""","""","""","""","""","""","""","""","""",12/11/2020 13:21,188.120.158.162,"Mozilla/5.0 (Windows NT 10.0; Win64; x64) AppleWebKit/537.36 (KHTML, like Gecko) Chrome/87.0.4280.88 Safari/537.36",WebKit,Chrome,87.0.4280.88,Windows,10
1,1,"""",call-function,1,2665,0.0-0.0-1.0,yuval,28.301,387,1,387,2,"""","""","""","""","""","""","""","""","""","""","""","""","""","""","""","""","""","""","""","""","""","""","""","""","""","""","""","""","""","""","""",12/11/2020 13:21,188.120.158.162,"Mozilla/5.0 (Windows NT 10.0; Win64; x64) AppleWebKit/537.36 (KHTML, like Gecko) Chrome/87.0.4280.88 Safari/537.36",WebKit,Chrome,87.0.4280.88,Windows,10
1,1,"""",new-resize,2,2665,0.0-0.0-2.0,yuval,28.301,387,1,387,2,"""",387,0.764444444,3.375,114.6666667,150,"""","""","""","""","""","""","""","""","""","""","""","""","""","""","""","""","""","""","""","""","""","""","""","""","""",12/11/2020 13:21,188.120.158.162,"Mozilla/5.0 (Windows NT 10.0; Win64; x64) AppleWebKit/537.36 (KHTML, like Gecko) Chrome/87.0.4280.88 Safari/537.36",WebKit,Chrome,87.0.4280.88,Windows,10
1,1,"""",animation,3,2668,0.0-0.0-3.0,yuval,28.301,387,1,387,2,"""","""","""","""","""","""","[{""stimulus"":""img/demo1_absent.jpg"",""time"":1.8949999939650297}]",[],"""",1,o,"""","""","""","""","""","""","""","""","""","""","""","""","""","""","""","""","""","""","""","""",12/11/2020 13:21,188.120.158.162,"Mozilla/5.0 (Windows NT 10.0; Win64; x64) AppleWebKit/537.36 (KHTML, like Gecko) Chrome/87.0.4280.88 Safari/537.36",WebKit,Chrome,87.0.4280.88,Windows,10
1,1,"""",html-keyboard-response,4,4173,0.0-0.0-4.0-0.0,yuval,28.301,387,1,387,2,"""","""","""","""","""","""","""","""",1503.935,<p style='font-size: 28px;' align='justify'>We finished the calibration stage! We will now continue to the main task of this experiment.</p>                <p style='font-size: 28px;' align='justify'><b>We remind you to make an effort to move as little as possible until the end of the task.</b></p>                <p style='font-size: 28px;'><b>Please read the following instructions carefully.</b></p>                <p style='font-size: 24px;'><i>Press the space bar to continue</i></p>,"""",32,"""","""","""","""","""","""","""","""","""","""","""","""","""","""","""","""","""","""","""",12/11/2020 13:21,188.120.158.162,"Mozilla/5.0 (Windows NT 10.0; Win64; x64) AppleWebKit/537.36 (KHTML, like Gecko) Chrome/87.0.4280.88 Safari/537.36",WebKit,Chrome,87.0.4280.88,Windows,10
1,1,"""",html-keyboard-response,5,5419,0.0-0.0-4.0-1.0,yuval,28.301,387,1,387,2,"""","""","""","""","""","""","""","""",1245.205,"<p style='font-size: 28px;' align='justify'>This experiment is made up of two different tasks, followed by a short questionnaire.</p>                <p style='font-size: 28px;' align='justify'>Each task should take about 10-20 minutes, and the questionnaire another 5 minutes.</p>                <p style='font-size: 24px;'><i>Press the space bar to continue to the first task's instructions</i></p>","""",32,"""","""","""","""","""","""","""","""","""","""","""","""","""","""","""","""","""","""","""",12/11/2020 13:21,188.120.158.162,"Mozilla/5.0 (Windows NT 10.0; Win64; x64) AppleWebKit/537.36 (KHTML, like Gecko) Chrome/87.0.4280.88 Safari/537.36",WebKit,Chrome,87.0.4280.88,Windows,10
1,1,"""",html-keyboard-response,6,6824,0.0-1.0-0.0,yuval,28.301,387,1,387,2,"""","""","""","""","""","""","""","""",1403.46,"<div class = 'center'><p style='font-size: 28px;'>In this task you will be presented with rapidly       changing patterns of rectangles. Through these rectangles faces will appear. Your task will be to indicate the location of       the faces, or any part of them, as soon as they appear.</p>      <p style='font-size: 24px;' align='center'><i>Press the space bar to continue.</i></p></div>","""",32,"""","""","""","""","""","""","""","""","""","""","""","""","""","""","""","""","""","""","""",12/11/2020 13:21,188.120.158.162,"Mozilla/5.0 (Windows NT 10.0; Win64; x64) AppleWebKit/537.36 (KHTML, like Gecko) Chrome/87.0.4280.88 Safari/537.36",WebKit,Chrome,87.0.4280.88,Windows,10
1,1,"""",html-keyboard-response,7,7680,0.0-1.0-1.0,yuval,28.301,387,1,387,2,"""","""","""","""","""","""","""","""",855.255,"<div class = 'center'><p style='font-size: 28px;'>If a face appeared in the right half       of the screen, press the right key. If a face appeared in the left half       of the screen, press the left key.</p>      <p style='font-size: 24px;' align='center'><i>Press the space bar to continue.</i></p></div>","""",32,"""","""","""","""","""","""","""","""","""","""","""","""","""","""","""","""","""","""","""",12/11/2020 13:21,188.120.158.162,"Mozilla/5.0 (Windows NT 10.0; Win64; x64) AppleWebKit/537.36 (KHTML, like Gecko) Chrome/87.0.4280.88 Safari/537.36",WebKit,Chrome,87.0.4280.88,Windows,10
1,1,"""",html-keyboard-response,8,8799,0.0-1.0-2.0,yuval,28.301,387,1,387,2,"""","""","""","""","""","""","""","""",1118.31,<div class = 'center'><p style='font-size: 28px;'>Please perform this task as accurately       and quickly as you can.</p>      <p style='font-size: 24px;' align='center'><i>Press the space bar to continue.</i></p></div>,"""",32,"""","""","""","""","""","""","""","""","""","""","""","""","""","""","""","""","""","""","""",12/11/2020 13:21,188.120.158.162,"Mozilla/5.0 (Windows NT 10.0; Win64; x64) AppleWebKit/537.36 (KHTML, like Gecko) Chrome/87.0.4280.88 Safari/537.36",WebKit,Chrome,87.0.4280.88,Windows,10
1,1,"""",html-keyboard-response,9,9571,0.0-1.0-3.0,yuval,28.301,387,1,387,2,"""","""","""","""","""","""","""","""",770.29,"<div class = 'center'><p style='font-size: 28px;'>During the task, please focus your gaze at       the plus sign in the middle.</p>        <p style='font-size: 28px;'><b>Even though the faces appear to the left and right of the plus sign, it is important that you look at the plus         sign at all times.</b></p>        <p style='font-size: 24px;' align='center'></i>Press the space bar to continue.</i></p></div>","""",32,"""","""","""","""","""","""","""","""","""","""","""","""","""","""","""","""","""","""","""",12/11/2020 13:21,188.120.158.162,"Mozilla/5.0 (Windows NT 10.0; Win64; x64) AppleWebKit/537.36 (KHTML, like Gecko) Chrome/87.0.4280.88 Safari/537.36",WebKit,Chrome,87.0.4280.88,Windows,10
1,1,"""",html-keyboard-response,10,12656,0.0-1.0-4.0,yuval,28.301,387,1,387,2,"""","""","""","""","""","""","""","""",3084.07,<div class = 'center'><p style='font-size: 28px;'>We will start with a short practice.</p>        <p style='font-size: 24px;' align='center'></i>Press the space bar to continue.</i></p></div>,"""",32,"""","""","""","""","""","""","""","""","""","""","""","""","""","""","""","""","""","""","""",12/11/2020 13:21,188.120.158.162,"Mozilla/5.0 (Windows NT 10.0; Win64; x64) AppleWebKit/537.36 (KHTML, like Gecko) Chrome/87.0.4280.88 Safari/537.36",WebKit,Chrome,87.0.4280.88,Windows,10
1,1,"""",html-keyboard-response,11,18603,0.0-1.0-5.0,yuval,28.301,387,1,387,2,"""","""","""","""","""","""","""","""",5945.47,<div class='center'>      <img src='keys.jpg'></img>      <p style='font-size: 28px;'>Place your fingers on the 'D' and 'K' keys as shown in the picture.</p>       <p style='font-size: 28px;'>If a face appears on the right side press the right key (K).</p>      <p style='font-size: 28px;'>If a face appears on the left side press the left key (D).</p>      <p>Press either one of these keys to start the practice.</p></div>,"""",75,"""","""","""","""","""","""","""","""","""","""","""","""","""","""","""","""","""","""","""",12/11/2020 13:21,188.120.158.162,"Mozilla/5.0 (Windows NT 10.0; Win64; x64) AppleWebKit/537.36 (KHTML, like Gecko) Chrome/87.0.4280.88 Safari/537.36",WebKit,Chrome,87.0.4280.88,Windows,10
1,1,"""",html-keyboard-response,12,18606,0.0-2.0-0.0,yuval,28.301,387,1,387,2,"""","""","""","""","""","""","""","""",null,"""","""",null,"""","""","""","""","""","""","""","""","""","""","""","""","""","""","""","""","""","""","""",12/11/2020 13:21,188.120.158.162,"Mozilla/5.0 (Windows NT 10.0; Win64; x64) AppleWebKit/537.36 (KHTML, like Gecko) Chrome/87.0.4280.88 Safari/537.36",WebKit,Chrome,87.0.4280.88,Windows,10
1,1,"""",bRMS,13,20927,0.0-2.0-1.0-0.0,yuval,28.301,387,1,387,2,"""","""","""","""","""","""","""","""",1390.28,faces/training/p_2.jpg,1,75,1,[object Object],0,0,1.60769E+12,TRUE,0,20,1,10,0.6,"""","""","""","""","""","""","""","""",12/11/2020 13:21,188.120.158.162,"Mozilla/5.0 (Windows NT 10.0; Win64; x64) AppleWebKit/537.36 (KHTML, like Gecko) Chrome/87.0.4280.88 Safari/537.36",WebKit,Chrome,87.0.4280.88,Windows,10
1,1,"""",bRMS,14,23357,0.0-2.0-1.0-0.1,yuval,28.301,387,1,387,2,"""","""","""","""","""","""","""","""",1499.38,faces/training/p_4.jpg,1,75,1,[object Object],0,0,1.60769E+12,TRUE,0,20,1,10,0.6,"""","""","""","""","""","""","""","""",12/11/2020 13:21,188.120.158.162,"Mozilla/5.0 (Windows NT 10.0; Win64; x64) AppleWebKit/537.36 (KHTML, like Gecko) Chrome/87.0.4280.88 Safari/537.36",WebKit,Chrome,87.0.4280.88,Windows,10
1,1,"""",bRMS,15,37396,0.0-2.0-1.0-0.2,yuval,28.301,387,1,387,2,"""","""","""","""","""","""","""","""",13102.385,faces/training/p_0.jpg,0,68,1,[object Object],1,0,1.60769E+12,TRUE,0,20,1,10,0.6,"""","""","""","""","""","""","""","""",12/11/2020 13:21,188.120.158.162,"Mozilla/5.0 (Windows NT 10.0; Win64; x64) AppleWebKit/537.36 (KHTML, like Gecko) Chrome/87.0.4280.88 Safari/537.36",WebKit,Chrome,87.0.4280.88,Windows,10
1,1,"""",bRMS,16,40143,0.0-2.0-1.0-0.3,yuval,28.301,387,1,387,2,"""","""","""","""","""","""","""","""",1791.39,faces/training/p_3.jpg,0,68,1,[object Object],0,0,1.60769E+12,TRUE,0,20,1,10,0.6,"""","""","""","""","""","""","""","""",12/11/2020 13:21,188.120.158.162,"Mozilla/5.0 (Windows NT 10.0; Win64; x64) AppleWebKit/537.36 (KHTML, like Gecko) Chrome/87.0.4280.88 Safari/537.36",WebKit,Chrome,87.0.4280.88,Windows,10
1,1,"""",bRMS,17,42517,0.0-2.0-1.0-0.4,yuval,28.301,387,1,387,2,"""","""","""","""","""","""","""","""",1442.84,faces/training/p_1.jpg,1,75,1,[object Object],0,0,1.60769E+12,TRUE,0,20,1,10,0.6,"""","""","""","""","""","""","""","""",12/11/2020 13:21,188.120.158.162,"Mozilla/5.0 (Windows NT 10.0; Win64; x64) AppleWebKit/537.36 (KHTML, like Gecko) Chrome/87.0.4280.88 Safari/537.36",WebKit,Chrome,87.0.4280.88,Windows,10
1,1,"""",html-keyboard-response,18,60596,0.0-3.0-0.0,yuval,28.301,387,1,387,2,"""","""","""","""","""","""","""","""",18074.095,"<div class = 'center'><p style='font-size: 28px;'>You have completed the practice block.</p>  <p style='font-size: 28px;'>You will now continue with the same task. The task may now be more   difficult. It will take about 5-10 minutes, and you will have a short break in the half way point. </p>    <p style='font-size: 24px;'>Press either the 'D' or the 'K' keys to continue.</p></div>","""",75,"""","""","""","""","""","""","""","""","""","""","""","""","""","""","""","""","""","""","""",12/11/2020 13:21,188.120.158.162,"Mozilla/5.0 (Windows NT 10.0; Win64; x64) AppleWebKit/537.36 (KHTML, like Gecko) Chrome/87.0.4280.88 Safari/537.36",WebKit,Chrome,87.0.4280.88,Windows,10
1,1,"""",html-keyboard-response,19,64153,0.0-3.0-1.0,yuval,28.301,387,1,387,2,"""","""","""","""","""","""","""","""",3555.15,"<div class = 'center'><p style='font-size: 28px;'>During the task, please focus your gaze at   the plus sign in the middle.</p>    <p style='font-size: 28px;'><b>Even though the faces appear to the left    and right of the plus sign, it is important that you look at the plus     sign at all times.</b></p>    <p style='font-size: 26px;'>Press either the 'D' or the 'K' keys to start the task.</p></div>","""",75,"""","""","""","""","""","""","""","""","""","""","""","""","""","""","""","""","""","""","""",12/11/2020 13:21,188.120.158.162,"Mozilla/5.0 (Windows NT 10.0; Win64; x64) AppleWebKit/537.36 (KHTML, like Gecko) Chrome/87.0.4280.88 Safari/537.36",WebKit,Chrome,87.0.4280.88,Windows,10
1,1,"""",bRMS,20,66757,0.0-4.0-0.0,yuval,28.301,387,1,387,2,"""","""","""","""","""","""","""","""",1675.065,faces/5.jpg,1,75,1,[object Object],0,0,1.60769E+12,"""",0,20,1,10,0.4,100,900,1,"""","""","""","""","""",12/11/2020 13:21,188.120.158.162,"Mozilla/5.0 (Windows NT 10.0; Win64; x64) AppleWebKit/537.36 (KHTML, like Gecko) Chrome/87.0.4280.88 Safari/537.36",WebKit,Chrome,87.0.4280.88,Windows,10
1,1,"""",bRMS,21,69418,0.0-4.0-2.0,yuval,28.301,387,1,387,2,"""","""","""","""","""","""","""","""",1725.71,faces/1.jpg,0,68,1,[object Object],0,0,1.60769E+12,"""",0,20,1,10,0.4,100,900,2,"""","""","""","""","""",12/11/2020 13:21,188.120.158.162,"Mozilla/5.0 (Windows NT 10.0; Win64; x64) AppleWebKit/537.36 (KHTML, like Gecko) Chrome/87.0.4280.88 Safari/537.36",WebKit,Chrome,87.0.4280.88,Windows,10
1,1,"""",bRMS,22,71558,0.0-4.0-4.0,yuval,28.301,387,1,387,2,"""","""","""","""","""","""","""","""",1214.675,faces/3.jpg,1,75,1,[object Object],0,0,1.60769E+12,"""",0,20,1,10,0.4,100,900,3,"""","""","""","""","""",12/11/2020 13:21,188.120.158.162,"Mozilla/5.0 (Windows NT 10.0; Win64; x64) AppleWebKit/537.36 (KHTML, like Gecko) Chrome/87.0.4280.88 Safari/537.36",WebKit,Chrome,87.0.4280.88,Windows,10
1,1,"""",bRMS,23,74716,0.0-4.0-6.0,yuval,28.301,387,1,387,2,"""","""","""","""","""","""","""","""",2225.825,faces/5.jpg,1,75,1,[object Object],0,0,1.60769E+12,"""",0,20,1,10,0.4,100,900,4,"""","""","""","""","""",12/11/2020 13:21,188.120.158.162,"Mozilla/5.0 (Windows NT 10.0; Win64; x64) AppleWebKit/537.36 (KHTML, like Gecko) Chrome/87.0.4280.88 Safari/537.36",WebKit,Chrome,87.0.4280.88,Windows,10
1,1,"""",bRMS,24,77069,0.0-4.0-8.0,yuval,28.301,387,1,387,2,"""","""","""","""","""","""","""","""",1425.005,faces/1.jpg,1,75,1,[object Object],0,0,1.60769E+12,"""",0,20,1,10,0.4,100,900,5,"""","""","""","""","""",12/11/2020 13:21,188.120.158.162,"Mozilla/5.0 (Windows NT 10.0; Win64; x64) AppleWebKit/537.36 (KHTML, like Gecko) Chrome/87.0.4280.88 Safari/537.36",WebKit,Chrome,87.0.4280.88,Windows,10
1,1,"""",bRMS,25,79510,0.0-4.0-10.0,yuval,28.301,387,1,387,2,"""","""","""","""","""","""","""","""",1511.69,faces/3.jpg,1,75,1,[object Object],0,0,1.60769E+12,"""",0,20,1,10,0.4,100,900,6,"""","""","""","""","""",12/11/2020 13:21,188.120.158.162,"Mozilla/5.0 (Windows NT 10.0; Win64; x64) AppleWebKit/537.36 (KHTML, like Gecko) Chrome/87.0.4280.88 Safari/537.36",WebKit,Chrome,87.0.4280.88,Windows,10
1,1,"""",bRMS,26,81964,0.0-4.0-12.0,yuval,28.301,387,1,387,2,"""","""","""","""","""","""","""","""",1526.25,faces/1.jpg,0,68,1,[object Object],0,0,1.60769E+12,"""",0,20,1,10,0.4,100,900,7,"""","""","""","""","""",12/11/2020 13:21,188.120.158.162,"Mozilla/5.0 (Windows NT 10.0; Win64; x64) AppleWebKit/537.36 (KHTML, like Gecko) Chrome/87.0.4280.88 Safari/537.36",WebKit,Chrome,87.0.4280.88,Windows,10
1,1,"""",bRMS,27,84438,0.0-4.0-14.0,yuval,28.301,387,1,387,2,"""","""","""","""","""","""","""","""",1543.67,faces/3.jpg,1,75,1,[object Object],0,0,1.60769E+12,"""",0,20,1,10,0.4,100,900,8,"""","""","""","""","""",12/11/2020 13:21,188.120.158.162,"Mozilla/5.0 (Windows NT 10.0; Win64; x64) AppleWebKit/537.36 (KHTML, like Gecko) Chrome/87.0.4280.88 Safari/537.36",WebKit,Chrome,87.0.4280.88,Windows,10
1,1,"""",bRMS,28,90741,0.0-4.0-16.0,yuval,28.301,387,1,387,2,"""","""","""","""","""","""","""","""",5373.155,faces/5.jpg,1,75,1,[object Object],0,0,1.60769E+12,"""",0,20,1,10,0.4,100,900,9,"""","""","""","""","""",12/11/2020 13:21,188.120.158.162,"Mozilla/5.0 (Windows NT 10.0; Win64; x64) AppleWebKit/537.36 (KHTML, like Gecko) Chrome/87.0.4280.88 Safari/537.36",WebKit,Chrome,87.0.4280.88,Windows,10
1,1,"""",bRMS,29,92978,0.0-4.0-18.0,yuval,28.301,387,1,387,2,"""","""","""","""","""","""","""","""",1308.055,faces/3.jpg,1,75,1,[object Object],0,0,1.60769E+12,"""",0,20,1,10,0.4,100,900,10,"""","""","""","""","""",12/11/2020 13:21,188.120.158.162,"Mozilla/5.0 (Windows NT 10.0; Win64; x64) AppleWebKit/537.36 (KHTML, like Gecko) Chrome/87.0.4280.88 Safari/537.36",WebKit,Chrome,87.0.4280.88,Windows,10
1,1,"""",bRMS,30,94652,0.0-4.0-20.0,yuval,28.301,387,1,387,2,"""","""","""","""","""","""","""","""",747.435,faces/1.jpg,1,75,1,[object Object],0,0,1.60769E+12,"""",0,20,1,10,0.4,100,900,11,"""","""","""","""","""",12/11/2020 13:21,188.120.158.162,"Mozilla/5.0 (Windows NT 10.0; Win64; x64) AppleWebKit/537.36 (KHTML, like Gecko) Chrome/87.0.4280.88 Safari/537.36",WebKit,Chrome,87.0.4280.88,Windows,10
1,1,"""",bRMS,31,96996,0.0-4.0-21.0,yuval,28.301,387,1,387,2,"""","""","""","""","""","""","""","""",1412.95,faces/5.jpg,0,68,1,[object Object],0,0,1.60769E+12,"""",0,20,1,10,0.4,100,900,12,"""","""","""","""","""",12/11/2020 13:21,188.120.158.162,"Mozilla/5.0 (Windows NT 10.0; Win64; x64) AppleWebKit/537.36 (KHTML, like Gecko) Chrome/87.0.4280.88 Safari/537.36",WebKit,Chrome,87.0.4280.88,Windows,10
1,1,"""",html-keyboard-response,32,99356,0.0-5.0-0.0,yuval,28.301,387,1,387,2,"""","""","""","""","""","""","""","""",2355.705,"<p style='font-size: 28px;'>First part is done!</p>    <p style='font-size: 28px;'>You've finished about half of the study, great job!</p>    <p style='font-size: 24px;' align='center'><i>Press the space bar to continue.</i></p>","""",32,"""","""","""","""","""","""","""","""","""","""","""","""","""","""","""","""","""","""","""",12/11/2020 13:21,188.120.158.162,"Mozilla/5.0 (Windows NT 10.0; Win64; x64) AppleWebKit/537.36 (KHTML, like Gecko) Chrome/87.0.4280.88 Safari/537.36",WebKit,Chrome,87.0.4280.88,Windows,10
1,1,"""",html-keyboard-response,33,101531,0.0-5.0-1.0,yuval,28.301,387,1,387,2,"""","""","""","""","""","""","""","""",2173.05,<p style='font-size: 28px;'>We will now go on to the second task.</p>    <p style='font-size: 28px;'>Please read the following instructions carefully.</p>    <p style='font-size: 24px;' align='center'><i>Press the space bar to continue.</i></p>,"""",32,"""","""","""","""","""","""","""","""","""","""","""","""","""","""","""","""","""","""","""",12/11/2020 13:21,188.120.158.162,"Mozilla/5.0 (Windows NT 10.0; Win64; x64) AppleWebKit/537.36 (KHTML, like Gecko) Chrome/87.0.4280.88 Safari/537.36",WebKit,Chrome,87.0.4280.88,Windows,10
1,1,"""",html-keyboard-response,34,117442,0.0-6.0-0.0-0.0,yuval,28.301,387,1,387,2,"""","""","""","""","""","""","""","""",15910.215,"<p style='font-size: 28px;' align='justify'>In this part you will be asked to find a single flickering object within a scene.    Each time you will be presented with one scene. This scene will be static, except for one single object that will be appearing and disappearing.    Your goal will be to detect this object as quickly and accurately as you can.</p>    <p style='font-size: 28px;' align='justify'>We will ask you to place your finger over the space bar, and once you have found the object press the space bar <b>as quickly as possible.</b></p>    <p style='font-size: 28px;' align='justify'>For each scene, you will have up to 60 seconds to do so. After that you will be asked about the location of the object.</P>    <br>    <p style='font-size: 28px;'>We will now continue with a short practice before starting the task.</p>    <br>    <p style='font-size: 24px;'><i>Press the space bar to continue</i></p>","""",32,"""","""","""","""","""","""","""","""","""","""","""","""","""","""","""","""","""","""","""",12/11/2020 13:21,188.120.158.162,"Mozilla/5.0 (Windows NT 10.0; Win64; x64) AppleWebKit/537.36 (KHTML, like Gecko) Chrome/87.0.4280.88 Safari/537.36",WebKit,Chrome,87.0.4280.88,Windows,10
1,1,"""",animation,35,123332,0.0-6.0-1.0,yuval,28.301,387,1,387,2,"""","""","""","""","""","""","[{""stimulus"":""img/demo1_absent.jpg"",""time"":501.25000000116415},{""stimulus"":""img/demo1_absent.jpg"",""time"":1002.0450000010896},{""stimulus"":""img/demo1_present.jpg"",""time"":1501.5050000220072},{""stimulus"":""img/demo1_present.jpg"",""time"":2001.7900000093505},{""stimulus"":""img/demo1_absent.jpg"",""time"":2501.8400000117254},{""stimulus"":""img/demo1_absent.jpg"",""time"":3001.875000016298},{""stimulus"":""img/demo1_present.jpg"",""time"":3501.524999999674},{""stimulus"":""img/demo1_present.jpg"",""time"":4002.4499999999534},{""stimulus"":""img/demo1_absent.jpg"",""time"":4501.264999998966},{""stimulus"":""img/demo1_absent.jpg"",""time"":5001.9500000053085},{""stimulus"":""img/demo1_present.jpg"",""time"":5501.310000021476}]","[{""key_press"":32,""rt"":5884.455000021262,""stimulus"":""img/demo1_present.jpg""}]",5884.675,1,o,"""","""","""","""","""","""",TRUE,"""","""","""","""","""","""","""","""","""","""","""","""","""",12/11/2020 13:21,188.120.158.162,"Mozilla/5.0 (Windows NT 10.0; Win64; x64) AppleWebKit/537.36 (KHTML, like Gecko) Chrome/87.0.4280.88 Safari/537.36",WebKit,Chrome,87.0.4280.88,Windows,10
1,1,"""",image-button-response,36,125095,0.0-6.0-2.0,yuval,28.301,387,1,387,2,"""","""","""","""","""","""","""","""",1758.675,detection grids/demo1.jpg,"""","""","""","""","""","""","""",TRUE,"""","""","""","""","""","""","""","""",2,"""","""","""","""",12/11/2020 13:21,188.120.158.162,"Mozilla/5.0 (Windows NT 10.0; Win64; x64) AppleWebKit/537.36 (KHTML, like Gecko) Chrome/87.0.4280.88 Safari/537.36",WebKit,Chrome,87.0.4280.88,Windows,10
1,1,"""",image-button-response,37,126078,0.0-6.0-3.0,yuval,28.301,387,1,387,2,"""","""","""","""","""","""","""","""",979.91,detection grids/demo1.jpg,"""","""","""","""","""","""","""",TRUE,"""","""","""","""","""","""","""","""",2,"""","""","""","""",12/11/2020 13:21,188.120.158.162,"Mozilla/5.0 (Windows NT 10.0; Win64; x64) AppleWebKit/537.36 (KHTML, like Gecko) Chrome/87.0.4280.88 Safari/537.36",WebKit,Chrome,87.0.4280.88,Windows,10
1,1,"""",html-keyboard-response,38,129570,0.0-6.0-4.0-0.0,yuval,28.301,387,1,387,2,"""","""","""","""","""","""","""","""",3491.96,"<p style='font-size: 28px;'>That was easy, right?</p>                <p style='font-size: 28px;'>Now let's have another practice. This time it will be a bit more difficult.</p>                <p style='font-size: 24px;'><i>Press the space bar to continue</i></p>","""",32,"""","""","""","""","""","""","""","""","""","""","""","""","""","""","""","""","""","""","""",12/11/2020 13:21,188.120.158.162,"Mozilla/5.0 (Windows NT 10.0; Win64; x64) AppleWebKit/537.36 (KHTML, like Gecko) Chrome/87.0.4280.88 Safari/537.36",WebKit,Chrome,87.0.4280.88,Windows,10
1,1,"""",animation,39,133365,0.0-6.0-5.0,yuval,28.301,387,1,387,2,"""","""","""","""","""","""","[{""stimulus"":""img/demo2_absent.jpg"",""time"":321.3500000128988},{""stimulus"":""blank"",""time"":563.945000001695},{""stimulus"":""img/demo2_absent.jpg"",""time"":642.4100000003818},{""stimulus"":""blank"",""time"":883.3600000070874},{""stimulus"":""img/demo2_present.jpg"",""time"":961.5050000138581},{""stimulus"":""blank"",""time"":1203.1950000091456},{""stimulus"":""img/demo2_present.jpg"",""time"":1281.9799999997485},{""stimulus"":""blank"",""time"":1523.444999998901},{""stimulus"":""img/demo2_absent.jpg"",""time"":1601.6100000124425},{""stimulus"":""blank"",""time"":1842.5900000147521},{""stimulus"":""img/demo2_absent.jpg"",""time"":1922.6849999977276},{""stimulus"":""blank"",""time"":2163.7599999958184},{""stimulus"":""img/demo2_present.jpg"",""time"":2241.280000016559},{""stimulus"":""blank"",""time"":2482.1450000163168},{""stimulus"":""img/demo2_present.jpg"",""time"":2561.6350000200327},{""stimulus"":""blank"",""time"":2802.8550000162795},{""stimulus"":""img/demo2_absent.jpg"",""time"":2881.6050000023097},{""stimulus"":""blank"",""time"":3122.6949999982025},{""stimulus"":""img/demo2_absent.jpg"",""time"":3201.6100000182632},{""stimulus"":""blank"",""time"":3453.1049999932293},{""stimulus"":""img/demo2_present.jpg"",""time"":3521.5250000183005},{""stimulus"":""blank"",""time"":3763.440000009723}]","[{""key_press"":32,""rt"":3788.044999993872,""stimulus"":""blank""}]",3788.115,2,o,"""","""","""","""","""","""",TRUE,"""","""","""","""","""","""","""","""","""","""","""","""","""",12/11/2020 13:21,188.120.158.162,"Mozilla/5.0 (Windows NT 10.0; Win64; x64) AppleWebKit/537.36 (KHTML, like Gecko) Chrome/87.0.4280.88 Safari/537.36",WebKit,Chrome,87.0.4280.88,Windows,10
1,1,"""",image-keyboard-response,40,138636,0.0-6.0-6.0,yuval,28.301,387,1,387,2,"""","""","""","""","""","""","""","""",5266.735,detection grids/demo2.jpg,"""",32,"""","""","""","""","""","""","""","""","""","""","""","""","""","""","""","""","""","""","""",12/11/2020 13:21,188.120.158.162,"Mozilla/5.0 (Windows NT 10.0; Win64; x64) AppleWebKit/537.36 (KHTML, like Gecko) Chrome/87.0.4280.88 Safari/537.36",WebKit,Chrome,87.0.4280.88,Windows,10
1,1,"""",image-button-response,41,141142,0.0-6.0-7.0,yuval,28.301,387,1,387,2,"""","""","""","""","""","""","""","""",2502.56,detection grids/demo2.jpg,"""","""","""","""","""","""","""",TRUE,"""","""","""","""","""","""","""","""",0,"""","""","""","""",12/11/2020 13:21,188.120.158.162,"Mozilla/5.0 (Windows NT 10.0; Win64; x64) AppleWebKit/537.36 (KHTML, like Gecko) Chrome/87.0.4280.88 Safari/537.36",WebKit,Chrome,87.0.4280.88,Windows,10
1,1,"""",image-button-response,42,142334,0.0-6.0-8.0,yuval,28.301,387,1,387,2,"""","""","""","""","""","""","""","""",1190.59,detection grids/demo2.jpg,"""","""","""","""","""","""","""",TRUE,"""","""","""","""","""","""","""","""",1,"""","""","""","""",12/11/2020 13:21,188.120.158.162,"Mozilla/5.0 (Windows NT 10.0; Win64; x64) AppleWebKit/537.36 (KHTML, like Gecko) Chrome/87.0.4280.88 Safari/537.36",WebKit,Chrome,87.0.4280.88,Windows,10
1,1,"""",html-keyboard-response,43,242076,0.0-6.0-9.0-0.0,yuval,28.301,387,1,387,2,"""","""","""","""","""","""","""","""",99739.67,<p style='font-size: 28px;'>Great! You are now ready to continue to the task.</p>                <p style='font-size: 28px;'>You will now be shown a series of similar trials one after another.</p>                <p style='font-size: 28px;'>It will take about 10-15 minutes until the next break.</p>                <p style='font-size: 28px;'>We ask you to keep your finger over the space bar and stay concentrated the whole time.</p>                <p style='font-size: 24px;'><i>Press the space bar when ready</i></p>,"""",32,"""","""","""","""","""","""","""","""","""","""","""","""","""","""","""","""","""","""","""",12/11/2020 13:21,188.120.158.162,"Mozilla/5.0 (Windows NT 10.0; Win64; x64) AppleWebKit/537.36 (KHTML, like Gecko) Chrome/87.0.4280.88 Safari/537.36",WebKit,Chrome,87.0.4280.88,Windows,10
1,1,"""",call-function,44,242079,0.0-7.0-0.0,yuval,28.301,387,1,387,2,[object Object],"""","""","""","""","""","""","""","""","""","""","""","""","""","""","""","""","""","""","""","""","""","""","""","""","""","""","""","""","""","""",12/11/2020 13:21,188.120.158.162,"Mozilla/5.0 (Windows NT 10.0; Win64; x64) AppleWebKit/537.36 (KHTML, like Gecko) Chrome/87.0.4280.88 Safari/537.36",WebKit,Chrome,87.0.4280.88,Windows,10
1,1,"""",html-keyboard-response,45,242086,0.0-7.0-1.0,yuval,28.301,387,1,387,2,[object Object],"""","""","""","""","""","""","""","""","""","""","""","""","""","""","""","""","""","""","""","""","""","""","""","""","""","""","""","""","""","""",12/11/2020 13:21,188.120.158.162,"Mozilla/5.0 (Windows NT 10.0; Win64; x64) AppleWebKit/537.36 (KHTML, like Gecko) Chrome/87.0.4280.88 Safari/537.36",WebKit,Chrome,87.0.4280.88,Windows,10
1,1,"""",html-keyboard-response,46,243086,0.0-7.0-2.0,yuval,28.301,387,1,387,2,"""","""","""","""","""","""","""","""",null,"<p style=""font-size: 48px;"">ready?</p>","""",null,"""","""","""","""","""","""","""","""","""","""","""","""","""","""","""","""","""","""","""",12/11/2020 13:21,188.120.158.162,"Mozilla/5.0 (Windows NT 10.0; Win64; x64) AppleWebKit/537.36 (KHTML, like Gecko) Chrome/87.0.4280.88 Safari/537.36",WebKit,Chrome,87.0.4280.88,Windows,10
1,1,"""",html-keyboard-response,47,244088,0.0-7.0-3.0,yuval,28.301,387,1,387,2,"""","""","""","""","""","""","""","""",null,"<p style=""font-size: 48px;"">ready?</p>","""",null,"""","""","""","""","""","""","""","""","""","""","""","""","""","""","""","""","""","""","""",12/11/2020 13:21,188.120.158.162,"Mozilla/5.0 (Windows NT 10.0; Win64; x64) AppleWebKit/537.36 (KHTML, like Gecko) Chrome/87.0.4280.88 Safari/537.36",WebKit,Chrome,87.0.4280.88,Windows,10
1,1,"""",html-keyboard-response,48,245089,0.0-7.0-4.0,yuval,28.301,387,1,387,2,"""","""","""","""","""","""","""","""",null,"<p style=""font-size: 48px;"">ready?</p>","""",null,"""","""","""","""","""","""","""","""","""","""","""","""","""","""","""","""","""","""","""",12/11/2020 13:21,188.120.158.162,"Mozilla/5.0 (Windows NT 10.0; Win64; x64) AppleWebKit/537.36 (KHTML, like Gecko) Chrome/87.0.4280.88 Safari/537.36",WebKit,Chrome,87.0.4280.88,Windows,10
1,1,TRUE,animation,49,247333,0.0-7.0-5.0,yuval,28.301,387,1,387,2,"""","""","""","""","""","""","[{""stimulus"":""img/01_L_filler_absent.jpg"",""time"":321.10000000102445},{""stimulus"":""blank"",""time"":561.4950000017416},{""stimulus"":""img/01_L_filler_absent.jpg"",""time"":640.625},{""stimulus"":""blank"",""time"":881.3899999950081},{""stimulus"":""img/01_L_filler_present.jpg"",""time"":960.9749999945052},{""stimulus"":""blank"",""time"":1201.9750000035856},{""stimulus"":""img/01_L_filler_present.jpg"",""time"":1281.0949999839067},{""stimulus"":""blank"",""time"":1522.7299999969546},{""stimulus"":""img/01_L_filler_absent.jpg"",""time"":1601.8000000040047},{""stimulus"":""blank"",""time"":1842.739999992773},{""stimulus"":""img/01_L_filler_absent.jpg"",""time"":1920.9949999931268},{""stimulus"":""blank"",""time"":2162.209999980405},{""stimulus"":""img/01_L_filler_present.jpg"",""time"":2240.8350000041537}]","[{""key_press"":32,""rt"":2242.1850000100676,""stimulus"":""img/01_L_filler_present.jpg""}]",2242.24,1,L,"""","""","""","""","""","""","""","""","""","""","""","""","""","""","""","""","1,1",1,"""","""",12/11/2020 13:21,188.120.158.162,"Mozilla/5.0 (Windows NT 10.0; Win64; x64) AppleWebKit/537.36 (KHTML, like Gecko) Chrome/87.0.4280.88 Safari/537.36",WebKit,Chrome,87.0.4280.88,Windows,10
1,1,"""",image-button-response,50,249413,0.0-7.0-6.0,yuval,28.301,387,1,387,2,"""","""","""","""","""","""","""","""",2072.285,detection grids/01L.jpg,"""","""","""","""","""","""","""","""","""","""","""","""","""","""","""","""",1,"""","""",TRUE,"""",12/11/2020 13:21,188.120.158.162,"Mozilla/5.0 (Windows NT 10.0; Win64; x64) AppleWebKit/537.36 (KHTML, like Gecko) Chrome/87.0.4280.88 Safari/537.36",WebKit,Chrome,87.0.4280.88,Windows,10
1,1,"""",image-button-response,51,249869,0.0-7.0-7.0,yuval,28.301,387,1,387,2,"""","""","""","""","""","""","""","""",454.59,detection grids/01L.jpg,"""","""","""","""","""","""","""","""","""","""","""","""","""","""","""","""",1,"""","""",TRUE,"""",12/11/2020 13:21,188.120.158.162,"Mozilla/5.0 (Windows NT 10.0; Win64; x64) AppleWebKit/537.36 (KHTML, like Gecko) Chrome/87.0.4280.88 Safari/537.36",WebKit,Chrome,87.0.4280.88,Windows,10
1,1,"""",call-function,52,249872,0.0-7.0-0.1,yuval,28.301,387,1,387,2,[object Object],"""","""","""","""","""","""","""","""","""","""","""","""","""","""","""","""","""","""","""","""","""","""","""","""","""","""","""","""","""","""",12/11/2020 13:21,188.120.158.162,"Mozilla/5.0 (Windows NT 10.0; Win64; x64) AppleWebKit/537.36 (KHTML, like Gecko) Chrome/87.0.4280.88 Safari/537.36",WebKit,Chrome,87.0.4280.88,Windows,10
1,1,"""",html-keyboard-response,53,249875,0.0-7.0-1.1,yuval,28.301,387,1,387,2,[object Object],"""","""","""","""","""","""","""","""","""","""","""","""","""","""","""","""","""","""","""","""","""","""","""","""","""","""","""","""","""","""",12/11/2020 13:21,188.120.158.162,"Mozilla/5.0 (Windows NT 10.0; Win64; x64) AppleWebKit/537.36 (KHTML, like Gecko) Chrome/87.0.4280.88 Safari/537.36",WebKit,Chrome,87.0.4280.88,Windows,10
1,1,"""",html-keyboard-response,54,250876,0.0-7.0-2.1,yuval,28.301,387,1,387,2,"""","""","""","""","""","""","""","""",null,"<p style=""font-size: 48px;"">ready?</p>","""",null,"""","""","""","""","""","""","""","""","""","""","""","""","""","""","""","""","""","""","""",12/11/2020 13:21,188.120.158.162,"Mozilla/5.0 (Windows NT 10.0; Win64; x64) AppleWebKit/537.36 (KHTML, like Gecko) Chrome/87.0.4280.88 Safari/537.36",WebKit,Chrome,87.0.4280.88,Windows,10
1,1,"""",html-keyboard-response,55,251879,0.0-7.0-3.1,yuval,28.301,387,1,387,2,"""","""","""","""","""","""","""","""",null,"<p style=""font-size: 48px;"">ready?</p>","""",null,"""","""","""","""","""","""","""","""","""","""","""","""","""","""","""","""","""","""","""",12/11/2020 13:21,188.120.158.162,"Mozilla/5.0 (Windows NT 10.0; Win64; x64) AppleWebKit/537.36 (KHTML, like Gecko) Chrome/87.0.4280.88 Safari/537.36",WebKit,Chrome,87.0.4280.88,Windows,10
1,1,"""",html-keyboard-response,56,252881,0.0-7.0-4.1,yuval,28.301,387,1,387,2,"""","""","""","""","""","""","""","""",null,"<p style=""font-size: 48px;"">ready?</p>","""",null,"""","""","""","""","""","""","""","""","""","""","""","""","""","""","""","""","""","""","""",12/11/2020 13:21,188.120.158.162,"Mozilla/5.0 (Windows NT 10.0; Win64; x64) AppleWebKit/537.36 (KHTML, like Gecko) Chrome/87.0.4280.88 Safari/537.36",WebKit,Chrome,87.0.4280.88,Windows,10
1,1,TRUE,animation,57,253990,0.0-7.0-5.1,yuval,28.301,387,1,387,2,"""","""","""","""","""","""","[{""stimulus"":""img/03_R_filler_absent.jpg"",""time"":321.63000002037734},{""stimulus"":""blank"",""time"":562.275000003865},{""stimulus"":""img/03_R_filler_absent.jpg"",""time"":641.9650000170805},{""stimulus"":""blank"",""time"":882.7500000188593},{""stimulus"":""img/03_R_filler_present.jpg"",""time"":961.6450000030454}]","[{""key_press"":32,""rt"":1107.9399999871384,""stimulus"":""img/03_R_filler_present.jpg""}]",1108,3,R,"""","""","""","""","""","""","""","""","""","""","""","""","""","""","""","""","2,2",2,"""","""",12/11/2020 13:21,188.120.158.162,"Mozilla/5.0 (Windows NT 10.0; Win64; x64) AppleWebKit/537.36 (KHTML, like Gecko) Chrome/87.0.4280.88 Safari/537.36",WebKit,Chrome,87.0.4280.88,Windows,10
1,1,"""",image-button-response,58,255646,0.0-7.0-6.1,yuval,28.301,387,1,387,2,"""","""","""","""","""","""","""","""",1649.69,detection grids/03R.jpg,"""","""","""","""","""","""","""","""","""","""","""","""","""","""","""","""",2,"""","""",TRUE,"""",12/11/2020 13:21,188.120.158.162,"Mozilla/5.0 (Windows NT 10.0; Win64; x64) AppleWebKit/537.36 (KHTML, like Gecko) Chrome/87.0.4280.88 Safari/537.36",WebKit,Chrome,87.0.4280.88,Windows,10
1,1,"""",image-button-response,59,255840,0.0-7.0-7.1,yuval,28.301,387,1,387,2,"""","""","""","""","""","""","""","""",192.4,detection grids/03R.jpg,"""","""","""","""","""","""","""","""","""","""","""","""","""","""","""","""",2,"""","""",TRUE,"""",12/11/2020 13:21,188.120.158.162,"Mozilla/5.0 (Windows NT 10.0; Win64; x64) AppleWebKit/537.36 (KHTML, like Gecko) Chrome/87.0.4280.88 Safari/537.36",WebKit,Chrome,87.0.4280.88,Windows,10
1,1,"""",call-function,60,255842,0.0-7.0-0.2,yuval,28.301,387,1,387,2,[object Object],"""","""","""","""","""","""","""","""","""","""","""","""","""","""","""","""","""","""","""","""","""","""","""","""","""","""","""","""","""","""",12/11/2020 13:21,188.120.158.162,"Mozilla/5.0 (Windows NT 10.0; Win64; x64) AppleWebKit/537.36 (KHTML, like Gecko) Chrome/87.0.4280.88 Safari/537.36",WebKit,Chrome,87.0.4280.88,Windows,10
1,1,"""",html-keyboard-response,61,255845,0.0-7.0-1.2,yuval,28.301,387,1,387,2,[object Object],"""","""","""","""","""","""","""","""","""","""","""","""","""","""","""","""","""","""","""","""","""","""","""","""","""","""","""","""","""","""",12/11/2020 13:21,188.120.158.162,"Mozilla/5.0 (Windows NT 10.0; Win64; x64) AppleWebKit/537.36 (KHTML, like Gecko) Chrome/87.0.4280.88 Safari/537.36",WebKit,Chrome,87.0.4280.88,Windows,10
1,1,"""",html-keyboard-response,62,256846,0.0-7.0-2.2,yuval,28.301,387,1,387,2,"""","""","""","""","""","""","""","""",null,"<p style=""font-size: 48px;"">ready?</p>","""",null,"""","""","""","""","""","""","""","""","""","""","""","""","""","""","""","""","""","""","""",12/11/2020 13:21,188.120.158.162,"Mozilla/5.0 (Windows NT 10.0; Win64; x64) AppleWebKit/537.36 (KHTML, like Gecko) Chrome/87.0.4280.88 Safari/537.36",WebKit,Chrome,87.0.4280.88,Windows,10
1,1,"""",html-keyboard-response,63,257850,0.0-7.0-3.2,yuval,28.301,387,1,387,2,"""","""","""","""","""","""","""","""",null,"<p style=""font-size: 48px;"">ready?</p>","""",null,"""","""","""","""","""","""","""","""","""","""","""","""","""","""","""","""","""","""","""",12/11/2020 13:21,188.120.158.162,"Mozilla/5.0 (Windows NT 10.0; Win64; x64) AppleWebKit/537.36 (KHTML, like Gecko) Chrome/87.0.4280.88 Safari/537.36",WebKit,Chrome,87.0.4280.88,Windows,10
1,1,"""",html-keyboard-response,64,258852,0.0-7.0-4.2,yuval,28.301,387,1,387,2,"""","""","""","""","""","""","""","""",null,"<p style=""font-size: 48px;"">ready?</p>","""",null,"""","""","""","""","""","""","""","""","""","""","""","""","""","""","""","""","""","""","""",12/11/2020 13:21,188.120.158.162,"Mozilla/5.0 (Windows NT 10.0; Win64; x64) AppleWebKit/537.36 (KHTML, like Gecko) Chrome/87.0.4280.88 Safari/537.36",WebKit,Chrome,87.0.4280.88,Windows,10
1,1,TRUE,animation,65,260019,0.0-7.0-5.2,yuval,28.301,387,1,387,2,"""","""","""","""","""","""","[{""stimulus"":""img/02_L_filler_absent.jpg"",""time"":321.33999999496154},{""stimulus"":""blank"",""time"":561.9000000006054},{""stimulus"":""img/02_L_filler_absent.jpg"",""time"":641.9349999923725},{""stimulus"":""blank"",""time"":883.4900000074413},{""stimulus"":""img/02_L_filler_present.jpg"",""time"":960.6900000071619}]","[{""key_press"":32,""rt"":1166.220000013709,""stimulus"":""img/02_L_filler_present.jpg""}]",1166.285,2,L,"""","""","""","""","""","""","""","""","""","""","""","""","""","""","""","""","1,3",3,"""","""",12/11/2020 13:21,188.120.158.162,"Mozilla/5.0 (Windows NT 10.0; Win64; x64) AppleWebKit/537.36 (KHTML, like Gecko) Chrome/87.0.4280.88 Safari/537.36",WebKit,Chrome,87.0.4280.88,Windows,10
1,1,"""",image-button-response,66,261749,0.0-7.0-6.2,yuval,28.301,387,1,387,2,"""","""","""","""","""","""","""","""",1723.67,detection grids/02L.jpg,"""","""","""","""","""","""","""","""","""","""","""","""","""","""","""","""",1,"""","""",TRUE,"""",12/11/2020 13:21,188.120.158.162,"Mozilla/5.0 (Windows NT 10.0; Win64; x64) AppleWebKit/537.36 (KHTML, like Gecko) Chrome/87.0.4280.88 Safari/537.36",WebKit,Chrome,87.0.4280.88,Windows,10
1,1,"""",image-button-response,67,262653,0.0-7.0-7.2,yuval,28.301,387,1,387,2,"""","""","""","""","""","""","""","""",902.66,detection grids/02L.jpg,"""","""","""","""","""","""","""","""","""","""","""","""","""","""","""","""",3,"""","""",TRUE,"""",12/11/2020 13:21,188.120.158.162,"Mozilla/5.0 (Windows NT 10.0; Win64; x64) AppleWebKit/537.36 (KHTML, like Gecko) Chrome/87.0.4280.88 Safari/537.36",WebKit,Chrome,87.0.4280.88,Windows,10
1,1,"""",call-function,68,262655,0.0-7.0-0.3,yuval,28.301,387,1,387,2,[object Object],"""","""","""","""","""","""","""","""","""","""","""","""","""","""","""","""","""","""","""","""","""","""","""","""","""","""","""","""","""","""",12/11/2020 13:21,188.120.158.162,"Mozilla/5.0 (Windows NT 10.0; Win64; x64) AppleWebKit/537.36 (KHTML, like Gecko) Chrome/87.0.4280.88 Safari/537.36",WebKit,Chrome,87.0.4280.88,Windows,10
1,1,"""",html-keyboard-response,69,262659,0.0-7.0-1.3,yuval,28.301,387,1,387,2,[object Object],"""","""","""","""","""","""","""","""","""","""","""","""","""","""","""","""","""","""","""","""","""","""","""","""","""","""","""","""","""","""",12/11/2020 13:21,188.120.158.162,"Mozilla/5.0 (Windows NT 10.0; Win64; x64) AppleWebKit/537.36 (KHTML, like Gecko) Chrome/87.0.4280.88 Safari/537.36",WebKit,Chrome,87.0.4280.88,Windows,10
1,1,"""",html-keyboard-response,70,263660,0.0-7.0-2.3,yuval,28.301,387,1,387,2,"""","""","""","""","""","""","""","""",null,"<p style=""font-size: 48px;"">ready?</p>","""",null,"""","""","""","""","""","""","""","""","""","""","""","""","""","""","""","""","""","""","""",12/11/2020 13:21,188.120.158.162,"Mozilla/5.0 (Windows NT 10.0; Win64; x64) AppleWebKit/537.36 (KHTML, like Gecko) Chrome/87.0.4280.88 Safari/537.36",WebKit,Chrome,87.0.4280.88,Windows,10
1,1,"""",html-keyboard-response,71,264663,0.0-7.0-3.3,yuval,28.301,387,1,387,2,"""","""","""","""","""","""","""","""",null,"<p style=""font-size: 48px;"">ready?</p>","""",null,"""","""","""","""","""","""","""","""","""","""","""","""","""","""","""","""","""","""","""",12/11/2020 13:21,188.120.158.162,"Mozilla/5.0 (Windows NT 10.0; Win64; x64) AppleWebKit/537.36 (KHTML, like Gecko) Chrome/87.0.4280.88 Safari/537.36",WebKit,Chrome,87.0.4280.88,Windows,10
1,1,"""",html-keyboard-response,72,265666,0.0-7.0-4.3,yuval,28.301,387,1,387,2,"""","""","""","""","""","""","""","""",null,"<p style=""font-size: 48px;"">ready?</p>","""",null,"""","""","""","""","""","""","""","""","""","""","""","""","""","""","""","""","""","""","""",12/11/2020 13:21,188.120.158.162,"Mozilla/5.0 (Windows NT 10.0; Win64; x64) AppleWebKit/537.36 (KHTML, like Gecko) Chrome/87.0.4280.88 Safari/537.36",WebKit,Chrome,87.0.4280.88,Windows,10
1,1,TRUE,animation,73,266914,0.0-7.0-5.3,yuval,28.301,387,1,387,2,"""","""","""","""","""","""","[{""stimulus"":""img/04_R_filler_absent.jpg"",""time"":321.974999998929},{""stimulus"":""blank"",""time"":562.7500000118744},{""stimulus"":""img/04_R_filler_absent.jpg"",""time"":641.4600000134669},{""stimulus"":""blank"",""time"":882.3250000132248},{""stimulus"":""img/04_R_filler_present.jpg"",""time"":961.6500000120141},{""stimulus"":""blank"",""time"":1203.0200000153854}]","[{""key_press"":32,""rt"":1247.2849999903701,""stimulus"":""blank""}]",1247.35,4,R,"""","""","""","""","""","""","""","""","""","""","""","""","""","""","""","""","2,0",4,"""","""",12/11/2020 13:21,188.120.158.162,"Mozilla/5.0 (Windows NT 10.0; Win64; x64) AppleWebKit/537.36 (KHTML, like Gecko) Chrome/87.0.4280.88 Safari/537.36",WebKit,Chrome,87.0.4280.88,Windows,10
1,1,"""",image-button-response,74,268798,0.0-7.0-6.3,yuval,28.301,387,1,387,2,"""","""","""","""","""","""","""","""",1877.13,detection grids/04R.jpg,"""","""","""","""","""","""","""","""","""","""","""","""","""","""","""","""",2,"""","""",TRUE,"""",12/11/2020 13:21,188.120.158.162,"Mozilla/5.0 (Windows NT 10.0; Win64; x64) AppleWebKit/537.36 (KHTML, like Gecko) Chrome/87.0.4280.88 Safari/537.36",WebKit,Chrome,87.0.4280.88,Windows,10
1,1,"""",image-button-response,75,269719,0.0-7.0-7.3,yuval,28.301,387,1,387,2,"""","""","""","""","""","""","""","""",919.125,detection grids/04R.jpg,"""","""","""","""","""","""","""","""","""","""","""","""","""","""","""","""",0,"""","""",TRUE,"""",12/11/2020 13:21,188.120.158.162,"Mozilla/5.0 (Windows NT 10.0; Win64; x64) AppleWebKit/537.36 (KHTML, like Gecko) Chrome/87.0.4280.88 Safari/537.36",WebKit,Chrome,87.0.4280.88,Windows,10
1,1,"""",call-function,76,269724,0.0-7.0-0.4,yuval,28.301,387,1,387,2,[object Object],"""","""","""","""","""","""","""","""","""","""","""","""","""","""","""","""","""","""","""","""","""","""","""","""","""","""","""","""","""","""",12/11/2020 13:21,188.120.158.162,"Mozilla/5.0 (Windows NT 10.0; Win64; x64) AppleWebKit/537.36 (KHTML, like Gecko) Chrome/87.0.4280.88 Safari/537.36",WebKit,Chrome,87.0.4280.88,Windows,10
1,1,"""",html-keyboard-response,77,269727,0.0-7.0-1.4,yuval,28.301,387,1,387,2,[object Object],"""","""","""","""","""","""","""","""","""","""","""","""","""","""","""","""","""","""","""","""","""","""","""","""","""","""","""","""","""","""",12/11/2020 13:21,188.120.158.162,"Mozilla/5.0 (Windows NT 10.0; Win64; x64) AppleWebKit/537.36 (KHTML, like Gecko) Chrome/87.0.4280.88 Safari/537.36",WebKit,Chrome,87.0.4280.88,Windows,10
1,1,"""",html-keyboard-response,78,270728,0.0-7.0-2.4,yuval,28.301,387,1,387,2,"""","""","""","""","""","""","""","""",null,"<p style=""font-size: 48px;"">ready?</p>","""",null,"""","""","""","""","""","""","""","""","""","""","""","""","""","""","""","""","""","""","""",12/11/2020 13:21,188.120.158.162,"Mozilla/5.0 (Windows NT 10.0; Win64; x64) AppleWebKit/537.36 (KHTML, like Gecko) Chrome/87.0.4280.88 Safari/537.36",WebKit,Chrome,87.0.4280.88,Windows,10
1,1,"""",html-keyboard-response,79,271745,0.0-7.0-3.4,yuval,28.301,387,1,387,2,"""","""","""","""","""","""","""","""",null,"<p style=""font-size: 48px;"">ready?</p>","""",null,"""","""","""","""","""","""","""","""","""","""","""","""","""","""","""","""","""","""","""",12/11/2020 13:21,188.120.158.162,"Mozilla/5.0 (Windows NT 10.0; Win64; x64) AppleWebKit/537.36 (KHTML, like Gecko) Chrome/87.0.4280.88 Safari/537.36",WebKit,Chrome,87.0.4280.88,Windows,10
1,1,"""",html-keyboard-response,80,272746,0.0-7.0-4.4,yuval,28.301,387,1,387,2,"""","""","""","""","""","""","""","""",null,"<p style=""font-size: 48px;"">ready?</p>","""",null,"""","""","""","""","""","""","""","""","""","""","""","""","""","""","""","""","""","""","""",12/11/2020 13:21,188.120.158.162,"Mozilla/5.0 (Windows NT 10.0; Win64; x64) AppleWebKit/537.36 (KHTML, like Gecko) Chrome/87.0.4280.88 Safari/537.36",WebKit,Chrome,87.0.4280.88,Windows,10
1,1,TRUE,animation,81,281730,0.0-7.0-5.4,yuval,28.301,387,1,387,2,"""","""","""","""","""","""","[{""stimulus"":""img/05_L_filler_absent.jpg"",""time"":321.2200000125449},{""stimulus"":""blank"",""time"":561.985000007553},{""stimulus"":""img/05_L_filler_absent.jpg"",""time"":641.5900000138208},{""stimulus"":""blank"",""time"":882.2600000130478},{""stimulus"":""img/05_L_filler_present.jpg"",""time"":960.944999998901},{""stimulus"":""blank"",""time"":1201.3700000243261},{""stimulus"":""img/05_L_filler_present.jpg"",""time"":1281.6200000233948},{""stimulus"":""blank"",""time"":1522.2850000136532},{""stimulus"":""img/05_L_filler_absent.jpg"",""time"":1601.0950000199955},{""stimulus"":""blank"",""time"":1841.4250000205357},{""stimulus"":""img/05_L_filler_absent.jpg"",""time"":1921.4650000212714},{""stimulus"":""blank"",""time"":2162.2199999983422},{""stimulus"":""img/05_L_filler_present.jpg"",""time"":2242.4400000018068},{""stimulus"":""blank"",""time"":2483.315000019502},{""stimulus"":""img/05_L_filler_present.jpg"",""time"":2561.1600000120234},{""stimulus"":""blank"",""time"":2802.5650000199676},{""stimulus"":""img/05_L_filler_absent.jpg"",""time"":2881.8500000052154},{""stimulus"":""blank"",""time"":3122.850000014296},{""stimulus"":""img/05_L_filler_absent.jpg"",""time"":3201.100000005681},{""stimulus"":""blank"",""time"":3442.1150000125635},{""stimulus"":""img/05_L_filler_present.jpg"",""time"":3521.9550000038},{""stimulus"":""blank"",""time"":3763.1300000066403},{""stimulus"":""img/05_L_filler_present.jpg"",""time"":3841.3450000225566},{""stimulus"":""blank"",""time"":4082.525000005262},{""stimulus"":""img/05_L_filler_absent.jpg"",""time"":4160.845000005793},{""stimulus"":""blank"",""time"":4414.835000003222},{""stimulus"":""img/05_L_filler_absent.jpg"",""time"":4481.400000018766},{""stimulus"":""blank"",""time"":4722.445000021253},{""stimulus"":""img/05_L_filler_present.jpg"",""time"":4801.0850000137},{""stimulus"":""blank"",""time"":5042.184999998426},{""stimulus"":""img/05_L_filler_present.jpg"",""time"":5121.3450000213925},{""stimulus"":""blank"",""time"":5362.16499999864},{""stimulus"":""img/05_L_filler_absent.jpg"",""time"":5441.225000016857},{""stimulus"":""blank"",""time"":5682.780000002822},{""stimulus"":""img/05_L_filler_absent.jpg"",""time"":5762.770000001183},{""stimulus"":""blank"",""time"":6003.519999998389},{""stimulus"":""img/05_L_filler_present.jpg"",""time"":6081.220000021858},{""stimulus"":""blank"",""time"":6322.070000023814},{""stimulus"":""img/05_L_filler_present.jpg"",""time"":6400.900000007823},{""stimulus"":""blank"",""time"":6641.434999997728},{""stimulus"":""img/05_L_filler_absent.jpg"",""time"":6721.8400000128895},{""stimulus"":""blank"",""time"":6962.46500001871},{""stimulus"":""img/05_L_filler_absent.jpg"",""time"":7042.230000020936},{""stimulus"":""blank"",""time"":7283.260000025621},{""stimulus"":""img/05_L_filler_present.jpg"",""time"":7364.88000000827},{""stimulus"":""blank"",""time"":7606.005000008736},{""stimulus"":""img/05_L_filler_present.jpg"",""time"":7682.455000001937},{""stimulus"":""blank"",""time"":7923.365000024205},{""stimulus"":""img/05_L_filler_absent.jpg"",""time"":8002.590000018245},{""stimulus"":""blank"",""time"":8244.160000002012},{""stimulus"":""img/05_L_filler_absent.jpg"",""time"":8321.974999998929},{""stimulus"":""blank"",""time"":8562.365000019781},{""stimulus"":""img/05_L_filler_present.jpg"",""time"":8641.270000021905},{""stimulus"":""blank"",""time"":8882.015000010142},{""stimulus"":""img/05_L_filler_present.jpg"",""time"":8960.855000012089}]","[{""key_press"":32,""rt"":8981.100000004517,""stimulus"":""img/05_L_filler_present.jpg""}]",8981.155,5,L,"""","""","""","""","""","""","""","""","""","""","""","""","""","""","""","""","0,3",5,"""","""",12/11/2020 13:21,188.120.158.162,"Mozilla/5.0 (Windows NT 10.0; Win64; x64) AppleWebKit/537.36 (KHTML, like Gecko) Chrome/87.0.4280.88 Safari/537.36",WebKit,Chrome,87.0.4280.88,Windows,10
1,1,"""",image-button-response,82,283718,0.0-7.0-6.4,yuval,28.301,387,1,387,2,"""","""","""","""","""","""","""","""",1983.465,detection grids/05L.jpg,"""","""","""","""","""","""","""","""","""","""","""","""","""","""","""","""",0,"""","""",TRUE,"""",12/11/2020 13:21,188.120.158.162,"Mozilla/5.0 (Windows NT 10.0; Win64; x64) AppleWebKit/537.36 (KHTML, like Gecko) Chrome/87.0.4280.88 Safari/537.36",WebKit,Chrome,87.0.4280.88,Windows,10
1,1,"""",image-button-response,83,284870,0.0-7.0-7.4,yuval,28.301,387,1,387,2,"""","""","""","""","""","""","""","""",1147.29,detection grids/05L.jpg,"""","""","""","""","""","""","""","""","""","""","""","""","""","""","""","""",3,"""","""",TRUE,"""",12/11/2020 13:21,188.120.158.162,"Mozilla/5.0 (Windows NT 10.0; Win64; x64) AppleWebKit/537.36 (KHTML, like Gecko) Chrome/87.0.4280.88 Safari/537.36",WebKit,Chrome,87.0.4280.88,Windows,10
1,1,"""",call-function,84,284870,0.0-8.0,yuval,28.301,387,1,387,2,"[{""timestamp"":4499.314999993658,""zoom_ratio"":1.75},{""timestamp"":8277.014999999665,""zoom_ratio"":1.75},{""timestamp"":31593.110000016168,""zoom_ratio"":1.75},{""timestamp"":41544.45499999565,""zoom_ratio"":1.75}]","""","""","""","""","""","""","""","""","""","""","""","""","""","""","""","""","""","""","""","""","""","""","""","""","""","""","""","""","""","""",12/11/2020 13:21,188.120.158.162,"Mozilla/5.0 (Windows NT 10.0; Win64; x64) AppleWebKit/537.36 (KHTML, like Gecko) Chrome/87.0.4280.88 Safari/537.36",WebKit,Chrome,87.0.4280.88,Windows,10
1,1,"""",call-function,85,284870,0.0-9.0,yuval,28.301,387,1,387,2,"[{""event"":""fullscreenenter"",""trial"":0,""time"":1693},{""event"":""blur"",""trial"":15,""time"":24984},{""event"":""focus"",""trial"":15,""time"":33624},{""event"":""blur"",""trial"":15,""time"":34855},{""event"":""focus"",""trial"":15,""time"":34952}]","""","""","""","""","""","""","""","""","""","""","""","""","""","""","""","""","""","""","""","""","""","""","""","""","""","""","""","""","""","""",12/11/2020 13:21,188.120.158.162,"Mozilla/5.0 (Windows NT 10.0; Win64; x64) AppleWebKit/537.36 (KHTML, like Gecko) Chrome/87.0.4280.88 Safari/537.36",WebKit,Chrome,87.0.4280.88,Windows,10
1,1,"""",call-function,86,284870,0.0-10.0,yuval,28.301,387,1,387,2,"{""assignmentId"":"",""hitId"":"",""workerId"":"",""turkSubmitTo"":"",""previewMode"":false,""outsideTurk"":true}","""","""","""","""","""","""","""","""","""","""","""","""","""","""","""","""","""","""","""","""","""","""","""","""","""","""","""","""","""","""",12/11/2020 13:21,188.120.158.162,"Mozilla/5.0 (Windows NT 10.0; Win64; x64) AppleWebKit/537.36 (KHTML, like Gecko) Chrome/87.0.4280.88 Safari/537.36",WebKit,Chrome,87.0.4280.88,Windows,10
1,1,"""",html-keyboard-response,87,294271,0.0-11.0-0.0,yuval,28.301,387,1,387,2,"""","""","""","""","""","""","""","""",9400.74,<div class='center'><p style='font-size: 28px;'>You have completed this part of the study!</p>                <p style='font-size: 28px;'>You will now answer several questions. Please answer them sincerely.</p>                 <p style='font-size: 28px;'>We remind you that your answers are completely anonymous.</p>                <p style='font-size: 24px;'><i>Press the space bar to continue</i></p></div>,"""",32,"""","""","""","""","""","""","""","""","""","""","""","""","""","""","""","""","""","""","""",12/11/2020 13:21,188.120.158.162,"Mozilla/5.0 (Windows NT 10.0; Win64; x64) AppleWebKit/537.36 (KHTML, like Gecko) Chrome/87.0.4280.88 Safari/537.36",WebKit,Chrome,87.0.4280.88,Windows,10
1,1,"""",survey-multi-choice,88,300623,0.0-11.0-1.0,yuval,28.301,387,1,387,2,"""","""","""","""","""","""","""","{""gender"":""Male"",""hand"":""Right"",""native"":""Yes""}",6346.86,"""","""","""","""","""","""","""","""","""","""","""","""","""","""","""","""","""","""","""","""","""","[0,1,2]",12/11/2020 13:21,188.120.158.162,"Mozilla/5.0 (Windows NT 10.0; Win64; x64) AppleWebKit/537.36 (KHTML, like Gecko) Chrome/87.0.4280.88 Safari/537.36",WebKit,Chrome,87.0.4280.88,Windows,10
1,1,"""",survey-text,89,305358,0.0-11.0-2.0,yuval,28.301,387,1,387,2,"""","""","""","""","""","""","""","{""age"":""29""}",4730.445,"""","""","""","""","""","""","""","""","""","""","""","""","""","""","""","""","""","""","""","""","""","""",12/11/2020 13:21,188.120.158.162,"Mozilla/5.0 (Windows NT 10.0; Win64; x64) AppleWebKit/537.36 (KHTML, like Gecko) Chrome/87.0.4280.88 Safari/537.36",WebKit,Chrome,87.0.4280.88,Windows,10
1,1,"""",survey-text,90,325621,0.0-11.0-3.0,yuval,28.301,387,1,387,2,"""","""","""","""","""","""","""","{""add"":""no""}",20258.49,"""","""","""","""","""","""","""","""","""","""","""","""","""","""","""","""","""","""","""","""","""","""",12/11/2020 13:21,188.120.158.162,"Mozilla/5.0 (Windows NT 10.0; Win64; x64) AppleWebKit/537.36 (KHTML, like Gecko) Chrome/87.0.4280.88 Safari/537.36",WebKit,Chrome,87.0.4280.88,Windows,10
1,1,"""",survey-likert,91,327125,0.0-11.0-4.0,yuval,28.301,387,1,387,2,"""","""","""","""","""","""","""","{""fluency"":2}",1502.495,"""","""","""","""","""","""","""","""","""","""","""","""","""","""","""","""","""","""","""","""","""",[0],12/11/2020 13:21,188.120.158.162,"Mozilla/5.0 (Windows NT 10.0; Win64; x64) AppleWebKit/537.36 (KHTML, like Gecko) Chrome/87.0.4280.88 Safari/537.36",WebKit,Chrome,87.0.4280.88,Windows,10
1,1,"""",survey-likert,92,329349,0.0-11.0-5.0,yuval,28.301,387,1,387,2,"""","""","""","""","""","""","""","{""instructions_1"":3}",2216.735,"""","""","""","""","""","""","""","""","""","""","""","""","""","""","""","""","""","""","""","""","""",[0],12/11/2020 13:21,188.120.158.162,"Mozilla/5.0 (Windows NT 10.0; Win64; x64) AppleWebKit/537.36 (KHTML, like Gecko) Chrome/87.0.4280.88 Safari/537.36",WebKit,Chrome,87.0.4280.88,Windows,10
1,1,"""",survey-text,93,332374,0.0-11.0-6.0,yuval,28.301,387,1,387,2,"""","""","""","""","""","""","""","{""strategy_1"":""mlk""}",3003.45,"""","""","""","""","""","""","""","""","""","""","""","""","""","""","""","""","""","""","""","""","""","""",12/11/2020 13:21,188.120.158.162,"Mozilla/5.0 (Windows NT 10.0; Win64; x64) AppleWebKit/537.36 (KHTML, like Gecko) Chrome/87.0.4280.88 Safari/537.36",WebKit,Chrome,87.0.4280.88,Windows,10
1,1,"""",survey-likert,94,334541,0.0-11.0-7.0,yuval,28.301,387,1,387,2,"""","""","""","""","""","""","""","{""instructions_2"":3}",2163.03,"""","""","""","""","""","""","""","""","""","""","""","""","""","""","""","""","""","""","""","""","""",[0],12/11/2020 13:21,188.120.158.162,"Mozilla/5.0 (Windows NT 10.0; Win64; x64) AppleWebKit/537.36 (KHTML, like Gecko) Chrome/87.0.4280.88 Safari/537.36",WebKit,Chrome,87.0.4280.88,Windows,10
1,1,"""",survey-text,95,336853,0.0-11.0-8.0,yuval,28.301,387,1,387,2,"""","""","""","""","""","""","""","{""strategy_2"":""lkkl""}",2305.19,"""","""","""","""","""","""","""","""","""","""","""","""","""","""","""","""","""","""","""","""","""","""",12/11/2020 13:21,188.120.158.162,"Mozilla/5.0 (Windows NT 10.0; Win64; x64) AppleWebKit/537.36 (KHTML, like Gecko) Chrome/87.0.4280.88 Safari/537.36",WebKit,Chrome,87.0.4280.88,Windows,10
1,1,"""",survey-likert,96,346110,0.0-11.0-9.0,yuval,28.301,387,1,387,2,"""","""","""","""","""","""","""","{""q1"":4,""q2"":4,""q3"":4,""q4"":4}",9251.175,"""","""","""","""","""","""","""","""","""","""","""","""","""","""","""","""","""","""","""","""","""","[0,1,2,3]",12/11/2020 13:21,188.120.158.162,"Mozilla/5.0 (Windows NT 10.0; Win64; x64) AppleWebKit/537.36 (KHTML, like Gecko) Chrome/87.0.4280.88 Safari/537.36",WebKit,Chrome,87.0.4280.88,Windows,10
1,1,"""",survey-likert,97,353302,0.0-11.0-10.0,yuval,28.301,387,1,387,2,"""","""","""","""","""","""","""","{""q5"":3,""q6"":3,""q7"":3,""q8"":3}",7187.825,"""","""","""","""","""","""","""","""","""","""","""","""","""","""","""","""","""","""","""","""","""","[0,1,2,3]",12/11/2020 13:21,188.120.158.162,"Mozilla/5.0 (Windows NT 10.0; Win64; x64) AppleWebKit/537.36 (KHTML, like Gecko) Chrome/87.0.4280.88 Safari/537.36",WebKit,Chrome,87.0.4280.88,Windows,10
1,1,"""",survey-likert,98,359670,0.0-11.0-11.0,yuval,28.301,387,1,387,2,"""","""","""","""","""","""","""","{""q9"":3,""q10"":3,""q11"":3,""q12"":3}",6360.055,"""","""","""","""","""","""","""","""","""","""","""","""","""","""","""","""","""","""","""","""","""","[0,1,2,3]",12/11/2020 13:21,188.120.158.162,"Mozilla/5.0 (Windows NT 10.0; Win64; x64) AppleWebKit/537.36 (KHTML, like Gecko) Chrome/87.0.4280.88 Safari/537.36",WebKit,Chrome,87.0.4280.88,Windows,10
1,1,"""",survey-multi-choice,99,361877,0.0-11.0-12.0,yuval,28.301,387,1,387,2,"""","""","""","""","""","""","""","{""is_driver"":""No""}",2203.135,"""","""","""","""","""","""","""","""","""","""","""","""","""","""","""","""","""","""","""","""","""",[0],12/11/2020 13:21,188.120.158.162,"Mozilla/5.0 (Windows NT 10.0; Win64; x64) AppleWebKit/537.36 (KHTML, like Gecko) Chrome/87.0.4280.88 Safari/537.36",WebKit,Chrome,87.0.4280.88,Windows,10
1,1,"""",survey-text,100,364470,0.0-13.0-0.0,yuval,28.301,387,1,387,2,"""","""","""","""","""","""","""","{""Q0"":""9""}",2583.535,"""","""","""","""","""","""","""","""","""","""","""","""","""","""","""","""","""","""","""","""","""","""",12/11/2020 13:21,188.120.158.162,"Mozilla/5.0 (Windows NT 10.0; Win64; x64) AppleWebKit/537.36 (KHTML, like Gecko) Chrome/87.0.4280.88 Safari/537.36",WebKit,Chrome,87.0.4280.88,Windows,10
1,1,"""",survey-text,101,370071,0.0-13.0-1.0,yuval,28.301,387,1,387,2,"""","""","""","""","""","""","""","{""comments"":""kklj""}",5597.055,"""","""","""","""","""","""","""","""","""","""","""","""","""","""","""","""","""","""","""","""","""","""",12/11/2020 13:21,188.120.158.162,"Mozilla/5.0 (Windows NT 10.0; Win64; x64) AppleWebKit/537.36 (KHTML, like Gecko) Chrome/87.0.4280.88 Safari/537.36",WebKit,Chrome,87.0.4280.88,Windows,10
1,1,"""",html-button-response,102,373398,0.0-13.0-2.0,yuval,28.301,387,1,387,2,"""","""","""","""","""","""","""","""",3322.26,<p><b>xrVESi7LQxYmku5</b></p>,"""","""","""","""","""","""","""","""","""","""","""","""","""","""","""","""",0,"""","""","""","""",12/11/2020 13:21,188.120.158.162,"Mozilla/5.0 (Windows NT 10.0; Win64; x64) AppleWebKit/537.36 (KHTML, like Gecko) Chrome/87.0.4280.88 Safari/537.36",WebKit,Chrome,87.0.4280.88,Windows,10
4,1,TRUE,fullscreen,0,2933,0.0-0.0-0.0,yuva2,27.102,396,2,396,2,"""","""","""","""","""","""","""","""","""","""","""","""","""","""","""","""","""","""","""","""","""","""","""","""","""","""","""","""","""","""","""",12/11/2020 13:33,188.120.158.162,"Mozilla/5.0 (Windows NT 10.0; Win64; x64) AppleWebKit/537.36 (KHTML, like Gecko) Chrome/87.0.4280.88 Safari/537.36",WebKit,Chrome,87.0.4280.88,Windows,10
4,1,"""",call-function,1,2936,0.0-0.0-1.0,yuva2,27.102,396,2,396,2,"""","""","""","""","""","""","""","""","""","""","""","""","""","""","""","""","""","""","""","""","""","""","""","""","""","""","""","""","""","""","""",12/11/2020 13:33,188.120.158.162,"Mozilla/5.0 (Windows NT 10.0; Win64; x64) AppleWebKit/537.36 (KHTML, like Gecko) Chrome/87.0.4280.88 Safari/537.36",WebKit,Chrome,87.0.4280.88,Windows,10
4,1,"""",new-resize,2,2937,0.0-0.0-2.0,yuva2,27.102,396,2,396,2,"""",396,0.782222222,3.375,117.3333333,150,"""","""","""","""","""","""","""","""","""","""","""","""","""","""","""","""","""","""","""","""","""","""","""","""","""",12/11/2020 13:33,188.120.158.162,"Mozilla/5.0 (Windows NT 10.0; Win64; x64) AppleWebKit/537.36 (KHTML, like Gecko) Chrome/87.0.4280.88 Safari/537.36",WebKit,Chrome,87.0.4280.88,Windows,10
4,1,"""",animation,3,2940,0.0-0.0-3.0,yuva2,27.102,396,2,396,2,"""","""","""","""","""","""","[{""stimulus"":""img/demo1_absent.jpg"",""time"":1.875000016298145}]",[],"""",1,o,"""","""","""","""","""","""","""","""","""","""","""","""","""","""","""","""","""","""","""","""",12/11/2020 13:33,188.120.158.162,"Mozilla/5.0 (Windows NT 10.0; Win64; x64) AppleWebKit/537.36 (KHTML, like Gecko) Chrome/87.0.4280.88 Safari/537.36",WebKit,Chrome,87.0.4280.88,Windows,10
4,1,"""",html-keyboard-response,4,3420,0.0-0.0-4.0-0.0,yuva2,27.102,396,2,396,2,"""","""","""","""","""","""","""","""",479.72,<p style='font-size: 28px;' align='justify'>We finished the calibration stage! We will now continue to the main task of this experiment.</p>                <p style='font-size: 28px;' align='justify'><b>We remind you to make an effort to move as little as possible until the end of the task.</b></p>                <p style='font-size: 28px;'><b>Please read the following instructions carefully.</b></p>                <p style='font-size: 24px;'><i>Press the space bar to continue</i></p>,"""",32,"""","""","""","""","""","""","""","""","""","""","""","""","""","""","""","""","""","""","""",12/11/2020 13:33,188.120.158.162,"Mozilla/5.0 (Windows NT 10.0; Win64; x64) AppleWebKit/537.36 (KHTML, like Gecko) Chrome/87.0.4280.88 Safari/537.36",WebKit,Chrome,87.0.4280.88,Windows,10
4,1,"""",html-keyboard-response,5,3800,0.0-0.0-4.0-1.0,yuva2,27.102,396,2,396,2,"""","""","""","""","""","""","""","""",379.34,"<p style='font-size: 28px;' align='justify'>This experiment is made up of two different tasks, followed by a short questionnaire.</p>                <p style='font-size: 28px;' align='justify'>Each task should take about 10-20 minutes, and the questionnaire another 5 minutes.</p>                <p style='font-size: 24px;'><i>Press the space bar to continue to the first task's instructions</i></p>","""",32,"""","""","""","""","""","""","""","""","""","""","""","""","""","""","""","""","""","""","""",12/11/2020 13:33,188.120.158.162,"Mozilla/5.0 (Windows NT 10.0; Win64; x64) AppleWebKit/537.36 (KHTML, like Gecko) Chrome/87.0.4280.88 Safari/537.36",WebKit,Chrome,87.0.4280.88,Windows,10
4,1,"""",html-keyboard-response,6,4144,0.0-1.0-0.0,yuva2,27.102,396,2,396,2,"""","""","""","""","""","""","""","""",343.37,"<div class = 'center'><p style='font-size: 28px;'>In this task you will be presented with rapidly       changing patterns of rectangles. Through these rectangles faces will appear. Your task will be to indicate the location of       the faces, or any part of them, as soon as they appear.</p>      <p style='font-size: 24px;' align='center'><i>Press the space bar to continue.</i></p></div>","""",32,"""","""","""","""","""","""","""","""","""","""","""","""","""","""","""","""","""","""","""",12/11/2020 13:33,188.120.158.162,"Mozilla/5.0 (Windows NT 10.0; Win64; x64) AppleWebKit/537.36 (KHTML, like Gecko) Chrome/87.0.4280.88 Safari/537.36",WebKit,Chrome,87.0.4280.88,Windows,10
4,1,"""",html-keyboard-response,7,4480,0.0-1.0-1.0,yuva2,27.102,396,2,396,2,"""","""","""","""","""","""","""","""",335.62,"<div class = 'center'><p style='font-size: 28px;'>If a face appeared in the right half       of the screen, press the right key. If a face appeared in the left half       of the screen, press the left key.</p>      <p style='font-size: 24px;' align='center'><i>Press the space bar to continue.</i></p></div>","""",32,"""","""","""","""","""","""","""","""","""","""","""","""","""","""","""","""","""","""","""",12/11/2020 13:33,188.120.158.162,"Mozilla/5.0 (Windows NT 10.0; Win64; x64) AppleWebKit/537.36 (KHTML, like Gecko) Chrome/87.0.4280.88 Safari/537.36",WebKit,Chrome,87.0.4280.88,Windows,10
4,1,"""",html-keyboard-response,8,4864,0.0-1.0-2.0,yuva2,27.102,396,2,396,2,"""","""","""","""","""","""","""","""",383.415,<div class = 'center'><p style='font-size: 28px;'>Please perform this task as accurately       and quickly as you can.</p>      <p style='font-size: 24px;' align='center'><i>Press the space bar to continue.</i></p></div>,"""",32,"""","""","""","""","""","""","""","""","""","""","""","""","""","""","""","""","""","""","""",12/11/2020 13:33,188.120.158.162,"Mozilla/5.0 (Windows NT 10.0; Win64; x64) AppleWebKit/537.36 (KHTML, like Gecko) Chrome/87.0.4280.88 Safari/537.36",WebKit,Chrome,87.0.4280.88,Windows,10
4,1,"""",html-keyboard-response,9,5230,0.0-1.0-3.0,yuva2,27.102,396,2,396,2,"""","""","""","""","""","""","""","""",364.39,"<div class = 'center'><p style='font-size: 28px;'>During the task, please focus your gaze at       the plus sign in the middle.</p>        <p style='font-size: 28px;'><b>Even though the faces appear to the left and right of the plus sign, it is important that you look at the plus         sign at all times.</b></p>        <p style='font-size: 24px;' align='center'></i>Press the space bar to continue.</i></p></div>","""",32,"""","""","""","""","""","""","""","""","""","""","""","""","""","""","""","""","""","""","""",12/11/2020 13:33,188.120.158.162,"Mozilla/5.0 (Windows NT 10.0; Win64; x64) AppleWebKit/537.36 (KHTML, like Gecko) Chrome/87.0.4280.88 Safari/537.36",WebKit,Chrome,87.0.4280.88,Windows,10
4,1,"""",html-keyboard-response,10,5875,0.0-1.0-4.0,yuva2,27.102,396,2,396,2,"""","""","""","""","""","""","""","""",645.15,<div class = 'center'><p style='font-size: 28px;'>We will start with a short practice.</p>        <p style='font-size: 24px;' align='center'></i>Press the space bar to continue.</i></p></div>,"""",32,"""","""","""","""","""","""","""","""","""","""","""","""","""","""","""","""","""","""","""",12/11/2020 13:33,188.120.158.162,"Mozilla/5.0 (Windows NT 10.0; Win64; x64) AppleWebKit/537.36 (KHTML, like Gecko) Chrome/87.0.4280.88 Safari/537.36",WebKit,Chrome,87.0.4280.88,Windows,10
4,1,"""",html-keyboard-response,11,6885,0.0-1.0-5.0,yuva2,27.102,396,2,396,2,"""","""","""","""","""","""","""","""",1007.885,<div class='center'>      <img src='keys.jpg'></img>      <p style='font-size: 28px;'>Place your fingers on the 'D' and 'K' keys as shown in the picture.</p>       <p style='font-size: 28px;'>If a face appears on the right side press the right key (K).</p>      <p style='font-size: 28px;'>If a face appears on the left side press the left key (D).</p>      <p>Press either one of these keys to start the practice.</p></div>,"""",75,"""","""","""","""","""","""","""","""","""","""","""","""","""","""","""","""","""","""","""",12/11/2020 13:33,188.120.158.162,"Mozilla/5.0 (Windows NT 10.0; Win64; x64) AppleWebKit/537.36 (KHTML, like Gecko) Chrome/87.0.4280.88 Safari/537.36",WebKit,Chrome,87.0.4280.88,Windows,10
4,1,"""",html-keyboard-response,12,6888,0.0-2.0-0.0,yuva2,27.102,396,2,396,2,"""","""","""","""","""","""","""","""",null,"""","""",null,"""","""","""","""","""","""","""","""","""","""","""","""","""","""","""","""","""","""","""",12/11/2020 13:33,188.120.158.162,"Mozilla/5.0 (Windows NT 10.0; Win64; x64) AppleWebKit/537.36 (KHTML, like Gecko) Chrome/87.0.4280.88 Safari/537.36",WebKit,Chrome,87.0.4280.88,Windows,10
4,1,"""",bRMS,13,9006,0.0-2.0-1.0-0.0,yuva2,27.102,396,2,396,2,"""","""","""","""","""","""","""","""",1188.745,faces/training/p_2.jpg,1,75,1,[object Object],0,0,1.60769E+12,TRUE,0,20,1,10,0.6,"""","""","""","""","""","""","""","""",12/11/2020 13:33,188.120.158.162,"Mozilla/5.0 (Windows NT 10.0; Win64; x64) AppleWebKit/537.36 (KHTML, like Gecko) Chrome/87.0.4280.88 Safari/537.36",WebKit,Chrome,87.0.4280.88,Windows,10
4,1,"""",bRMS,14,10801,0.0-2.0-1.0-0.1,yuva2,27.102,396,2,396,2,"""","""","""","""","""","""","""","""",850.885,faces/training/p_0.jpg,1,75,1,[object Object],0,0,1.60769E+12,TRUE,0,20,1,10,0.6,"""","""","""","""","""","""","""","""",12/11/2020 13:33,188.120.158.162,"Mozilla/5.0 (Windows NT 10.0; Win64; x64) AppleWebKit/537.36 (KHTML, like Gecko) Chrome/87.0.4280.88 Safari/537.36",WebKit,Chrome,87.0.4280.88,Windows,10
4,1,"""",bRMS,15,13069,0.0-2.0-1.0-0.2,yuva2,27.102,396,2,396,2,"""","""","""","""","""","""","""","""",1341.215,faces/training/p_3.jpg,0,75,0,[object Object],0,0,1.60769E+12,TRUE,0,20,1,10,0.6,"""","""","""","""","""","""","""","""",12/11/2020 13:33,188.120.158.162,"Mozilla/5.0 (Windows NT 10.0; Win64; x64) AppleWebKit/537.36 (KHTML, like Gecko) Chrome/87.0.4280.88 Safari/537.36",WebKit,Chrome,87.0.4280.88,Windows,10
4,1,"""",bRMS,16,15164,0.0-2.0-1.0-0.3,yuva2,27.102,396,2,396,2,"""","""","""","""","""","""","""","""",1161.85,faces/training/p_4.jpg,0,68,1,[object Object],0,0,1.60769E+12,TRUE,0,20,1,10,0.6,"""","""","""","""","""","""","""","""",12/11/2020 13:33,188.120.158.162,"Mozilla/5.0 (Windows NT 10.0; Win64; x64) AppleWebKit/537.36 (KHTML, like Gecko) Chrome/87.0.4280.88 Safari/537.36",WebKit,Chrome,87.0.4280.88,Windows,10
4,1,"""",bRMS,17,17427,0.0-2.0-1.0-0.4,yuva2,27.102,396,2,396,2,"""","""","""","""","""","""","""","""",1334.485,faces/training/p_1.jpg,0,68,1,[object Object],0,0,1.60769E+12,TRUE,0,20,1,10,0.6,"""","""","""","""","""","""","""","""",12/11/2020 13:33,188.120.158.162,"Mozilla/5.0 (Windows NT 10.0; Win64; x64) AppleWebKit/537.36 (KHTML, like Gecko) Chrome/87.0.4280.88 Safari/537.36",WebKit,Chrome,87.0.4280.88,Windows,10
4,1,"""",html-keyboard-response,18,19044,0.0-2.1-0.1,yuva2,27.102,396,2,396,2,"""","""","""","""","""","""","""","""",1611.07,<div class='center'>  <p style='font-size: 28px;'>You pressed the wrong key too many times during the practice block.</p>  <p style='font-size: 24px;'>Press either the 'D' or 'K' keys to repeat it.</p></div>,"""",68,"""","""","""","""","""","""","""","""","""","""","""","""","""","""","""","""","""","""","""",12/11/2020 13:33,188.120.158.162,"Mozilla/5.0 (Windows NT 10.0; Win64; x64) AppleWebKit/537.36 (KHTML, like Gecko) Chrome/87.0.4280.88 Safari/537.36",WebKit,Chrome,87.0.4280.88,Windows,10
4,1,"""",bRMS,19,21771,0.0-2.1-1.1-0.5,yuva2,27.102,396,2,396,2,"""","""","""","""","""","""","""","""",1772.09,faces/training/p_1.jpg,0,68,1,[object Object],0,0,1.60769E+12,TRUE,0,20,1,10,0.6,"""","""","""","""","""","""","""","""",12/11/2020 13:33,188.120.158.162,"Mozilla/5.0 (Windows NT 10.0; Win64; x64) AppleWebKit/537.36 (KHTML, like Gecko) Chrome/87.0.4280.88 Safari/537.36",WebKit,Chrome,87.0.4280.88,Windows,10
4,1,"""",bRMS,20,24504,0.0-2.1-1.1-0.6,yuva2,27.102,396,2,396,2,"""","""","""","""","""","""","""","""",1803.57,faces/training/p_4.jpg,0,68,1,[object Object],0,0,1.60769E+12,TRUE,0,20,1,10,0.6,"""","""","""","""","""","""","""","""",12/11/2020 13:33,188.120.158.162,"Mozilla/5.0 (Windows NT 10.0; Win64; x64) AppleWebKit/537.36 (KHTML, like Gecko) Chrome/87.0.4280.88 Safari/537.36",WebKit,Chrome,87.0.4280.88,Windows,10
4,1,"""",bRMS,21,27381,0.0-2.1-1.1-0.7,yuva2,27.102,396,2,396,2,"""","""","""","""","""","""","""","""",1947.54,faces/training/p_0.jpg,1,75,1,[object Object],0,0,1.60769E+12,TRUE,0,20,1,10,0.6,"""","""","""","""","""","""","""","""",12/11/2020 13:33,188.120.158.162,"Mozilla/5.0 (Windows NT 10.0; Win64; x64) AppleWebKit/537.36 (KHTML, like Gecko) Chrome/87.0.4280.88 Safari/537.36",WebKit,Chrome,87.0.4280.88,Windows,10
4,1,"""",bRMS,22,29337,0.0-2.1-1.1-0.8,yuva2,27.102,396,2,396,2,"""","""","""","""","""","""","""","""",1027.575,faces/training/p_2.jpg,1,75,1,[object Object],0,0,1.60769E+12,TRUE,0,20,1,10,0.6,"""","""","""","""","""","""","""","""",12/11/2020 13:33,188.120.158.162,"Mozilla/5.0 (Windows NT 10.0; Win64; x64) AppleWebKit/537.36 (KHTML, like Gecko) Chrome/87.0.4280.88 Safari/537.36",WebKit,Chrome,87.0.4280.88,Windows,10
4,1,"""",bRMS,23,31815,0.0-2.1-1.1-0.9,yuva2,27.102,396,2,396,2,"""","""","""","""","""","""","""","""",1552.94,faces/training/p_3.jpg,0,68,1,[object Object],0,0,1.60769E+12,TRUE,0,20,1,10,0.6,"""","""","""","""","""","""","""","""",12/11/2020 13:33,188.120.158.162,"Mozilla/5.0 (Windows NT 10.0; Win64; x64) AppleWebKit/537.36 (KHTML, like Gecko) Chrome/87.0.4280.88 Safari/537.36",WebKit,Chrome,87.0.4280.88,Windows,10
4,1,"""",html-keyboard-response,24,33069,0.0-3.0-0.0,yuva2,27.102,396,2,396,2,"""","""","""","""","""","""","""","""",1246.245,"<div class = 'center'><p style='font-size: 28px;'>You have completed the practice block.</p>  <p style='font-size: 28px;'>You will now continue with the same task. The task may now be more   difficult. It will take about 5-10 minutes, and you will have a short break in the half way point. </p>    <p style='font-size: 24px;'>Press either the 'D' or the 'K' keys to continue.</p></div>","""",75,"""","""","""","""","""","""","""","""","""","""","""","""","""","""","""","""","""","""","""",12/11/2020 13:33,188.120.158.162,"Mozilla/5.0 (Windows NT 10.0; Win64; x64) AppleWebKit/537.36 (KHTML, like Gecko) Chrome/87.0.4280.88 Safari/537.36",WebKit,Chrome,87.0.4280.88,Windows,10
4,1,"""",html-keyboard-response,25,34161,0.0-3.0-1.0,yuva2,27.102,396,2,396,2,"""","""","""","""","""","""","""","""",1091.37,"<div class = 'center'><p style='font-size: 28px;'>During the task, please focus your gaze at   the plus sign in the middle.</p>    <p style='font-size: 28px;'><b>Even though the faces appear to the left    and right of the plus sign, it is important that you look at the plus     sign at all times.</b></p>    <p style='font-size: 26px;'>Press either the 'D' or the 'K' keys to start the task.</p></div>","""",75,"""","""","""","""","""","""","""","""","""","""","""","""","""","""","""","""","""","""","""",12/11/2020 13:33,188.120.158.162,"Mozilla/5.0 (Windows NT 10.0; Win64; x64) AppleWebKit/537.36 (KHTML, like Gecko) Chrome/87.0.4280.88 Safari/537.36",WebKit,Chrome,87.0.4280.88,Windows,10
4,1,"""",bRMS,26,36555,0.0-4.0-0.0,yuva2,27.102,396,2,396,2,"""","""","""","""","""","""","""","""",1468.86,faces/5.jpg,0,68,1,[object Object],0,0,1.60769E+12,"""",0,20,1,10,0.4,100,900,1,"""","""","""","""","""",12/11/2020 13:33,188.120.158.162,"Mozilla/5.0 (Windows NT 10.0; Win64; x64) AppleWebKit/537.36 (KHTML, like Gecko) Chrome/87.0.4280.88 Safari/537.36",WebKit,Chrome,87.0.4280.88,Windows,10
4,1,"""",bRMS,27,39930,0.0-4.0-2.0,yuva2,27.102,396,2,396,2,"""","""","""","""","""","""","""","""",2444.585,faces/1.jpg,1,75,1,[object Object],0,0,1.60769E+12,"""",0,20,1,10,0.4,100,900,2,"""","""","""","""","""",12/11/2020 13:33,188.120.158.162,"Mozilla/5.0 (Windows NT 10.0; Win64; x64) AppleWebKit/537.36 (KHTML, like Gecko) Chrome/87.0.4280.88 Safari/537.36",WebKit,Chrome,87.0.4280.88,Windows,10
4,1,"""",bRMS,28,43150,0.0-4.0-4.0,yuva2,27.102,396,2,396,2,"""","""","""","""","""","""","""","""",2292.935,faces/3.jpg,1,75,1,[object Object],0,0,1.60769E+12,"""",0,20,1,10,0.4,100,900,3,"""","""","""","""","""",12/11/2020 13:33,188.120.158.162,"Mozilla/5.0 (Windows NT 10.0; Win64; x64) AppleWebKit/537.36 (KHTML, like Gecko) Chrome/87.0.4280.88 Safari/537.36",WebKit,Chrome,87.0.4280.88,Windows,10
4,1,"""",bRMS,29,45834,0.0-4.0-6.0,yuva2,27.102,396,2,396,2,"""","""","""","""","""","""","""","""",1754.38,faces/1.jpg,0,68,1,[object Object],0,0,1.60769E+12,"""",0,20,1,10,0.4,100,900,4,"""","""","""","""","""",12/11/2020 13:33,188.120.158.162,"Mozilla/5.0 (Windows NT 10.0; Win64; x64) AppleWebKit/537.36 (KHTML, like Gecko) Chrome/87.0.4280.88 Safari/537.36",WebKit,Chrome,87.0.4280.88,Windows,10
4,1,"""",bRMS,30,48622,0.0-4.0-8.0,yuva2,27.102,396,2,396,2,"""","""","""","""","""","""","""","""",1860.32,faces/5.jpg,0,68,1,[object Object],0,0,1.60769E+12,"""",0,20,1,10,0.4,100,900,5,"""","""","""","""","""",12/11/2020 13:33,188.120.158.162,"Mozilla/5.0 (Windows NT 10.0; Win64; x64) AppleWebKit/537.36 (KHTML, like Gecko) Chrome/87.0.4280.88 Safari/537.36",WebKit,Chrome,87.0.4280.88,Windows,10
4,1,"""",bRMS,31,54606,0.0-4.0-10.0,yuva2,27.102,396,2,396,2,"""","""","""","""","""","""","""","""",5053.49,faces/3.jpg,1,75,1,[object Object],0,0,1.60769E+12,"""",0,20,1,10,0.4,100,900,6,"""","""","""","""","""",12/11/2020 13:33,188.120.158.162,"Mozilla/5.0 (Windows NT 10.0; Win64; x64) AppleWebKit/537.36 (KHTML, like Gecko) Chrome/87.0.4280.88 Safari/537.36",WebKit,Chrome,87.0.4280.88,Windows,10
4,1,"""",bRMS,32,57505,0.0-4.0-12.0,yuva2,27.102,396,2,396,2,"""","""","""","""","""","""","""","""",1972.135,faces/1.jpg,0,68,1,[object Object],0,0,1.60769E+12,"""",0,20,1,10,0.4,100,900,7,"""","""","""","""","""",12/11/2020 13:33,188.120.158.162,"Mozilla/5.0 (Windows NT 10.0; Win64; x64) AppleWebKit/537.36 (KHTML, like Gecko) Chrome/87.0.4280.88 Safari/537.36",WebKit,Chrome,87.0.4280.88,Windows,10
4,1,"""",bRMS,33,60105,0.0-4.0-14.0,yuva2,27.102,396,2,396,2,"""","""","""","""","""","""","""","""",1668.49,faces/5.jpg,0,68,1,[object Object],0,0,1.60769E+12,"""",0,20,1,10,0.4,100,900,8,"""","""","""","""","""",12/11/2020 13:33,188.120.158.162,"Mozilla/5.0 (Windows NT 10.0; Win64; x64) AppleWebKit/537.36 (KHTML, like Gecko) Chrome/87.0.4280.88 Safari/537.36",WebKit,Chrome,87.0.4280.88,Windows,10
4,1,"""",bRMS,34,62738,0.0-4.0-16.0,yuva2,27.102,396,2,396,2,"""","""","""","""","""","""","""","""",1705.305,faces/3.jpg,0,68,1,[object Object],0,0,1.60769E+12,"""",0,20,1,10,0.4,100,900,9,"""","""","""","""","""",12/11/2020 13:33,188.120.158.162,"Mozilla/5.0 (Windows NT 10.0; Win64; x64) AppleWebKit/537.36 (KHTML, like Gecko) Chrome/87.0.4280.88 Safari/537.36",WebKit,Chrome,87.0.4280.88,Windows,10
4,1,"""",bRMS,35,65337,0.0-4.0-18.0,yuva2,27.102,396,2,396,2,"""","""","""","""","""","""","""","""",1670.635,faces/3.jpg,1,75,1,[object Object],0,0,1.60769E+12,"""",0,20,1,10,0.4,100,900,10,"""","""","""","""","""",12/11/2020 13:33,188.120.158.162,"Mozilla/5.0 (Windows NT 10.0; Win64; x64) AppleWebKit/537.36 (KHTML, like Gecko) Chrome/87.0.4280.88 Safari/537.36",WebKit,Chrome,87.0.4280.88,Windows,10
4,1,"""",bRMS,36,67777,0.0-4.0-20.0,yuva2,27.102,396,2,396,2,"""","""","""","""","""","""","""","""",1511.995,faces/5.jpg,0,68,1,[object Object],0,0,1.60769E+12,"""",0,20,1,10,0.4,100,900,11,"""","""","""","""","""",12/11/2020 13:33,188.120.158.162,"Mozilla/5.0 (Windows NT 10.0; Win64; x64) AppleWebKit/537.36 (KHTML, like Gecko) Chrome/87.0.4280.88 Safari/537.36",WebKit,Chrome,87.0.4280.88,Windows,10
4,1,"""",bRMS,37,70676,0.0-4.0-21.0,yuva2,27.102,396,2,396,2,"""","""","""","""","""","""","""","""",1968.585,faces/1.jpg,0,68,1,[object Object],0,0,1.60769E+12,"""",0,20,1,10,0.4,100,900,12,"""","""","""","""","""",12/11/2020 13:33,188.120.158.162,"Mozilla/5.0 (Windows NT 10.0; Win64; x64) AppleWebKit/537.36 (KHTML, like Gecko) Chrome/87.0.4280.88 Safari/537.36",WebKit,Chrome,87.0.4280.88,Windows,10
4,1,"""",html-keyboard-response,38,72601,0.0-5.0-0.0,yuva2,27.102,396,2,396,2,"""","""","""","""","""","""","""","""",1921.085,"<p style='font-size: 28px;'>First part is done!</p>    <p style='font-size: 28px;'>You've finished about half of the study, great job!</p>    <p style='font-size: 24px;' align='center'><i>Press the space bar to continue.</i></p>","""",32,"""","""","""","""","""","""","""","""","""","""","""","""","""","""","""","""","""","""","""",12/11/2020 13:33,188.120.158.162,"Mozilla/5.0 (Windows NT 10.0; Win64; x64) AppleWebKit/537.36 (KHTML, like Gecko) Chrome/87.0.4280.88 Safari/537.36",WebKit,Chrome,87.0.4280.88,Windows,10
4,1,"""",html-keyboard-response,39,73202,0.0-5.0-1.0,yuva2,27.102,396,2,396,2,"""","""","""","""","""","""","""","""",598.895,<p style='font-size: 28px;'>We will now go on to the second task.</p>    <p style='font-size: 28px;'>Please read the following instructions carefully.</p>    <p style='font-size: 24px;' align='center'><i>Press the space bar to continue.</i></p>,"""",32,"""","""","""","""","""","""","""","""","""","""","""","""","""","""","""","""","""","""","""",12/11/2020 13:33,188.120.158.162,"Mozilla/5.0 (Windows NT 10.0; Win64; x64) AppleWebKit/537.36 (KHTML, like Gecko) Chrome/87.0.4280.88 Safari/537.36",WebKit,Chrome,87.0.4280.88,Windows,10
4,1,"""",html-keyboard-response,40,74263,0.0-6.0-0.0-0.0,yuva2,27.102,396,2,396,2,"""","""","""","""","""","""","""","""",1059.945,"<p style='font-size: 28px;' align='justify'>In this part you will be asked to find a single flickering object within a scene.    Each time you will be presented with one scene. This scene will be static, except for one single object that will be appearing and disappearing.    Your goal will be to detect this object as quickly and accurately as you can.</p>    <p style='font-size: 28px;' align='justify'>We will ask you to place your finger over the space bar, and once you have found the object press the space bar <b>as quickly as possible.</b></p>    <p style='font-size: 28px;' align='justify'>For each scene, you will have up to 60 seconds to do so. After that you will be asked about the location of the object.</P>    <br>    <p style='font-size: 28px;'>We will now continue with a short practice before starting the task.</p>    <br>    <p style='font-size: 24px;'><i>Press the space bar to continue</i></p>","""",32,"""","""","""","""","""","""","""","""","""","""","""","""","""","""","""","""","""","""","""",12/11/2020 13:33,188.120.158.162,"Mozilla/5.0 (Windows NT 10.0; Win64; x64) AppleWebKit/537.36 (KHTML, like Gecko) Chrome/87.0.4280.88 Safari/537.36",WebKit,Chrome,87.0.4280.88,Windows,10
4,1,"""",animation,41,75796,0.0-6.0-1.0,yuva2,27.102,396,2,396,2,"""","""","""","""","""","""","[{""stimulus"":""img/demo1_absent.jpg"",""time"":502.47000000672415},{""stimulus"":""img/demo1_absent.jpg"",""time"":1001.7400000069756},{""stimulus"":""img/demo1_present.jpg"",""time"":1500.9650000138208}]","[{""key_press"":32,""rt"":1529.7699999937322,""stimulus"":""img/demo1_present.jpg""}]",1529.915,1,o,"""","""","""","""","""","""",TRUE,"""","""","""","""","""","""","""","""","""","""","""","""","""",12/11/2020 13:33,188.120.158.162,"Mozilla/5.0 (Windows NT 10.0; Win64; x64) AppleWebKit/537.36 (KHTML, like Gecko) Chrome/87.0.4280.88 Safari/537.36",WebKit,Chrome,87.0.4280.88,Windows,10
4,1,"""",image-button-response,42,76725,0.0-6.0-2.0,yuva2,27.102,396,2,396,2,"""","""","""","""","""","""","""","""",920.515,detection grids/demo1.jpg,"""","""","""","""","""","""","""",TRUE,"""","""","""","""","""","""","""","""",2,"""","""","""","""",12/11/2020 13:33,188.120.158.162,"Mozilla/5.0 (Windows NT 10.0; Win64; x64) AppleWebKit/537.36 (KHTML, like Gecko) Chrome/87.0.4280.88 Safari/537.36",WebKit,Chrome,87.0.4280.88,Windows,10
4,1,"""",image-button-response,43,76916,0.0-6.0-3.0,yuva2,27.102,396,2,396,2,"""","""","""","""","""","""","""","""",189.49,detection grids/demo1.jpg,"""","""","""","""","""","""","""",TRUE,"""","""","""","""","""","""","""","""",2,"""","""","""","""",12/11/2020 13:33,188.120.158.162,"Mozilla/5.0 (Windows NT 10.0; Win64; x64) AppleWebKit/537.36 (KHTML, like Gecko) Chrome/87.0.4280.88 Safari/537.36",WebKit,Chrome,87.0.4280.88,Windows,10
4,1,"""",html-keyboard-response,44,77201,0.0-6.0-4.0-0.0,yuva2,27.102,396,2,396,2,"""","""","""","""","""","""","""","""",284.965,"<p style='font-size: 28px;'>That was easy, right?</p>                <p style='font-size: 28px;'>Now let's have another practice. This time it will be a bit more difficult.</p>                <p style='font-size: 24px;'><i>Press the space bar to continue</i></p>","""",32,"""","""","""","""","""","""","""","""","""","""","""","""","""","""","""","""","""","""","""",12/11/2020 13:33,188.120.158.162,"Mozilla/5.0 (Windows NT 10.0; Win64; x64) AppleWebKit/537.36 (KHTML, like Gecko) Chrome/87.0.4280.88 Safari/537.36",WebKit,Chrome,87.0.4280.88,Windows,10
4,1,"""",animation,45,78042,0.0-6.0-5.0,yuva2,27.102,396,2,396,2,"""","""","""","""","""","""","[{""stimulus"":""img/demo2_absent.jpg"",""time"":322.13499999488704},{""stimulus"":""blank"",""time"":564.3649999983609},{""stimulus"":""img/demo2_absent.jpg"",""time"":641.5250000136439}]","[{""key_press"":32,""rt"":837.7299999992829,""stimulus"":""img/demo2_absent.jpg""}]",837.785,2,o,"""","""","""","""","""","""",TRUE,"""","""","""","""","""","""","""","""","""","""","""","""","""",12/11/2020 13:33,188.120.158.162,"Mozilla/5.0 (Windows NT 10.0; Win64; x64) AppleWebKit/537.36 (KHTML, like Gecko) Chrome/87.0.4280.88 Safari/537.36",WebKit,Chrome,87.0.4280.88,Windows,10
4,1,"""",image-keyboard-response,46,78327,0.0-6.0-6.0,yuva2,27.102,396,2,396,2,"""","""","""","""","""","""","""","""",281.24,detection grids/demo2.jpg,"""",32,"""","""","""","""","""","""","""","""","""","""","""","""","""","""","""","""","""","""","""",12/11/2020 13:33,188.120.158.162,"Mozilla/5.0 (Windows NT 10.0; Win64; x64) AppleWebKit/537.36 (KHTML, like Gecko) Chrome/87.0.4280.88 Safari/537.36",WebKit,Chrome,87.0.4280.88,Windows,10
4,1,"""",image-button-response,47,79123,0.0-6.0-7.0,yuva2,27.102,396,2,396,2,"""","""","""","""","""","""","""","""",794.48,detection grids/demo2.jpg,"""","""","""","""","""","""","""",TRUE,"""","""","""","""","""","""","""","""",1,"""","""","""","""",12/11/2020 13:33,188.120.158.162,"Mozilla/5.0 (Windows NT 10.0; Win64; x64) AppleWebKit/537.36 (KHTML, like Gecko) Chrome/87.0.4280.88 Safari/537.36",WebKit,Chrome,87.0.4280.88,Windows,10
4,1,"""",image-button-response,48,79315,0.0-6.0-8.0,yuva2,27.102,396,2,396,2,"""","""","""","""","""","""","""","""",189.485,detection grids/demo2.jpg,"""","""","""","""","""","""","""",TRUE,"""","""","""","""","""","""","""","""",1,"""","""","""","""",12/11/2020 13:33,188.120.158.162,"Mozilla/5.0 (Windows NT 10.0; Win64; x64) AppleWebKit/537.36 (KHTML, like Gecko) Chrome/87.0.4280.88 Safari/537.36",WebKit,Chrome,87.0.4280.88,Windows,10
4,1,"""",html-keyboard-response,49,79788,0.0-6.0-9.0-0.0,yuva2,27.102,396,2,396,2,"""","""","""","""","""","""","""","""",471.915,<p style='font-size: 28px;'>Great! You are now ready to continue to the task.</p>                <p style='font-size: 28px;'>You will now be shown a series of similar trials one after another.</p>                <p style='font-size: 28px;'>It will take about 10-15 minutes until the next break.</p>                <p style='font-size: 28px;'>We ask you to keep your finger over the space bar and stay concentrated the whole time.</p>                <p style='font-size: 24px;'><i>Press the space bar when ready</i></p>,"""",32,"""","""","""","""","""","""","""","""","""","""","""","""","""","""","""","""","""","""","""",12/11/2020 13:33,188.120.158.162,"Mozilla/5.0 (Windows NT 10.0; Win64; x64) AppleWebKit/537.36 (KHTML, like Gecko) Chrome/87.0.4280.88 Safari/537.36",WebKit,Chrome,87.0.4280.88,Windows,10
4,1,"""",call-function,50,79791,0.0-7.0-0.0,yuva2,27.102,396,2,396,2,[object Object],"""","""","""","""","""","""","""","""","""","""","""","""","""","""","""","""","""","""","""","""","""","""","""","""","""","""","""","""","""","""",12/11/2020 13:33,188.120.158.162,"Mozilla/5.0 (Windows NT 10.0; Win64; x64) AppleWebKit/537.36 (KHTML, like Gecko) Chrome/87.0.4280.88 Safari/537.36",WebKit,Chrome,87.0.4280.88,Windows,10
4,1,"""",html-keyboard-response,51,79794,0.0-7.0-1.0,yuva2,27.102,396,2,396,2,[object Object],"""","""","""","""","""","""","""","""","""","""","""","""","""","""","""","""","""","""","""","""","""","""","""","""","""","""","""","""","""","""",12/11/2020 13:33,188.120.158.162,"Mozilla/5.0 (Windows NT 10.0; Win64; x64) AppleWebKit/537.36 (KHTML, like Gecko) Chrome/87.0.4280.88 Safari/537.36",WebKit,Chrome,87.0.4280.88,Windows,10
4,1,"""",html-keyboard-response,52,80795,0.0-7.0-2.0,yuva2,27.102,396,2,396,2,"""","""","""","""","""","""","""","""",null,"<p style=""font-size: 48px;"">ready?</p>","""",null,"""","""","""","""","""","""","""","""","""","""","""","""","""","""","""","""","""","""","""",12/11/2020 13:33,188.120.158.162,"Mozilla/5.0 (Windows NT 10.0; Win64; x64) AppleWebKit/537.36 (KHTML, like Gecko) Chrome/87.0.4280.88 Safari/537.36",WebKit,Chrome,87.0.4280.88,Windows,10
4,1,"""",html-keyboard-response,53,81799,0.0-7.0-3.0,yuva2,27.102,396,2,396,2,"""","""","""","""","""","""","""","""",null,"<p style=""font-size: 48px;"">ready?</p>","""",null,"""","""","""","""","""","""","""","""","""","""","""","""","""","""","""","""","""","""","""",12/11/2020 13:33,188.120.158.162,"Mozilla/5.0 (Windows NT 10.0; Win64; x64) AppleWebKit/537.36 (KHTML, like Gecko) Chrome/87.0.4280.88 Safari/537.36",WebKit,Chrome,87.0.4280.88,Windows,10
4,1,"""",html-keyboard-response,54,82800,0.0-7.0-4.0,yuva2,27.102,396,2,396,2,"""","""","""","""","""","""","""","""",null,"<p style=""font-size: 48px;"">ready?</p>","""",null,"""","""","""","""","""","""","""","""","""","""","""","""","""","""","""","""","""","""","""",12/11/2020 13:33,188.120.158.162,"Mozilla/5.0 (Windows NT 10.0; Win64; x64) AppleWebKit/537.36 (KHTML, like Gecko) Chrome/87.0.4280.88 Safari/537.36",WebKit,Chrome,87.0.4280.88,Windows,10
4,1,TRUE,animation,55,83876,0.0-7.0-5.0,yuva2,27.102,396,2,396,2,"""","""","""","""","""","""","[{""stimulus"":""img/02_L_filler_absent.jpg"",""time"":320.68999999319203},{""stimulus"":""blank"",""time"":562.065000005532},{""stimulus"":""img/02_L_filler_absent.jpg"",""time"":642.3200000135694},{""stimulus"":""blank"",""time"":882.9299999924842},{""stimulus"":""img/02_L_filler_present.jpg"",""time"":961.7699999944307}]","[{""key_press"":32,""rt"":1072.775000007823,""stimulus"":""img/02_L_filler_present.jpg""}]",1072.845,2,L,"""","""","""","""","""","""","""","""","""","""","""","""","""","""","""","""","1,3",1,"""","""",12/11/2020 13:33,188.120.158.162,"Mozilla/5.0 (Windows NT 10.0; Win64; x64) AppleWebKit/537.36 (KHTML, like Gecko) Chrome/87.0.4280.88 Safari/537.36",WebKit,Chrome,87.0.4280.88,Windows,10
4,1,"""",image-button-response,56,84987,0.0-7.0-6.0,yuva2,27.102,396,2,396,2,"""","""","""","""","""","""","""","""",1107.285,detection grids/02L.jpg,"""","""","""","""","""","""","""","""","""","""","""","""","""","""","""","""",1,"""","""",TRUE,"""",12/11/2020 13:33,188.120.158.162,"Mozilla/5.0 (Windows NT 10.0; Win64; x64) AppleWebKit/537.36 (KHTML, like Gecko) Chrome/87.0.4280.88 Safari/537.36",WebKit,Chrome,87.0.4280.88,Windows,10
4,1,"""",image-button-response,57,85781,0.0-7.0-7.0,yuva2,27.102,396,2,396,2,"""","""","""","""","""","""","""","""",791.735,detection grids/02L.jpg,"""","""","""","""","""","""","""","""","""","""","""","""","""","""","""","""",3,"""","""",TRUE,"""",12/11/2020 13:33,188.120.158.162,"Mozilla/5.0 (Windows NT 10.0; Win64; x64) AppleWebKit/537.36 (KHTML, like Gecko) Chrome/87.0.4280.88 Safari/537.36",WebKit,Chrome,87.0.4280.88,Windows,10
4,1,"""",call-function,58,85786,0.0-7.0-0.1,yuva2,27.102,396,2,396,2,[object Object],"""","""","""","""","""","""","""","""","""","""","""","""","""","""","""","""","""","""","""","""","""","""","""","""","""","""","""","""","""","""",12/11/2020 13:33,188.120.158.162,"Mozilla/5.0 (Windows NT 10.0; Win64; x64) AppleWebKit/537.36 (KHTML, like Gecko) Chrome/87.0.4280.88 Safari/537.36",WebKit,Chrome,87.0.4280.88,Windows,10
4,1,"""",html-keyboard-response,59,85789,0.0-7.0-1.1,yuva2,27.102,396,2,396,2,[object Object],"""","""","""","""","""","""","""","""","""","""","""","""","""","""","""","""","""","""","""","""","""","""","""","""","""","""","""","""","""","""",12/11/2020 13:33,188.120.158.162,"Mozilla/5.0 (Windows NT 10.0; Win64; x64) AppleWebKit/537.36 (KHTML, like Gecko) Chrome/87.0.4280.88 Safari/537.36",WebKit,Chrome,87.0.4280.88,Windows,10
4,1,"""",html-keyboard-response,60,86790,0.0-7.0-2.1,yuva2,27.102,396,2,396,2,"""","""","""","""","""","""","""","""",null,"<p style=""font-size: 48px;"">ready?</p>","""",null,"""","""","""","""","""","""","""","""","""","""","""","""","""","""","""","""","""","""","""",12/11/2020 13:33,188.120.158.162,"Mozilla/5.0 (Windows NT 10.0; Win64; x64) AppleWebKit/537.36 (KHTML, like Gecko) Chrome/87.0.4280.88 Safari/537.36",WebKit,Chrome,87.0.4280.88,Windows,10
4,1,"""",html-keyboard-response,61,87792,0.0-7.0-3.1,yuva2,27.102,396,2,396,2,"""","""","""","""","""","""","""","""",null,"<p style=""font-size: 48px;"">ready?</p>","""",null,"""","""","""","""","""","""","""","""","""","""","""","""","""","""","""","""","""","""","""",12/11/2020 13:33,188.120.158.162,"Mozilla/5.0 (Windows NT 10.0; Win64; x64) AppleWebKit/537.36 (KHTML, like Gecko) Chrome/87.0.4280.88 Safari/537.36",WebKit,Chrome,87.0.4280.88,Windows,10
4,1,"""",html-keyboard-response,62,88795,0.0-7.0-4.1,yuva2,27.102,396,2,396,2,"""","""","""","""","""","""","""","""",null,"<p style=""font-size: 48px;"">ready?</p>","""",null,"""","""","""","""","""","""","""","""","""","""","""","""","""","""","""","""","""","""","""",12/11/2020 13:33,188.120.158.162,"Mozilla/5.0 (Windows NT 10.0; Win64; x64) AppleWebKit/537.36 (KHTML, like Gecko) Chrome/87.0.4280.88 Safari/537.36",WebKit,Chrome,87.0.4280.88,Windows,10
4,1,FALSE,animation,63,90306,0.0-7.0-5.1,yuva2,27.102,396,2,396,2,"""","""","""","""","""","""","[{""stimulus"":""img/05_R_filler_absent.jpg"",""time"":321.84000001871027},{""stimulus"":""blank"",""time"":562.8250000008848},{""stimulus"":""img/05_R_filler_absent.jpg"",""time"":641.0000000032596},{""stimulus"":""blank"",""time"":881.8750000209548},{""stimulus"":""img/05_R_filler_present.jpg"",""time"":961.9999999995343},{""stimulus"":""blank"",""time"":1203.315000020666},{""stimulus"":""img/05_R_filler_present.jpg"",""time"":1281.1450000153854}]","[{""key_press"":32,""rt"":1509.810000017751,""stimulus"":""img/05_R_filler_present.jpg""}]",1509.875,5,R,"""","""","""","""","""","""","""","""","""","""","""","""","""","""","""","""","3,3",2,"""","""",12/11/2020 13:33,188.120.158.162,"Mozilla/5.0 (Windows NT 10.0; Win64; x64) AppleWebKit/537.36 (KHTML, like Gecko) Chrome/87.0.4280.88 Safari/537.36",WebKit,Chrome,87.0.4280.88,Windows,10
4,1,"""",image-button-response,64,92403,0.0-7.0-6.1,yuva2,27.102,396,2,396,2,"""","""","""","""","""","""","""","""",2090.8,detection grids/05R.jpg,"""","""","""","""","""","""","""","""","""","""","""","""","""","""","""","""",1,"""","""",FALSE,"""",12/11/2020 13:33,188.120.158.162,"Mozilla/5.0 (Windows NT 10.0; Win64; x64) AppleWebKit/537.36 (KHTML, like Gecko) Chrome/87.0.4280.88 Safari/537.36",WebKit,Chrome,87.0.4280.88,Windows,10
4,1,"""",image-button-response,65,93420,0.0-7.0-7.1,yuva2,27.102,396,2,396,2,"""","""","""","""","""","""","""","""",1015.15,detection grids/05R.jpg,"""","""","""","""","""","""","""","""","""","""","""","""","""","""","""","""",3,"""","""",TRUE,"""",12/11/2020 13:33,188.120.158.162,"Mozilla/5.0 (Windows NT 10.0; Win64; x64) AppleWebKit/537.36 (KHTML, like Gecko) Chrome/87.0.4280.88 Safari/537.36",WebKit,Chrome,87.0.4280.88,Windows,10
4,1,"""",call-function,66,93425,0.0-7.0-0.2,yuva2,27.102,396,2,396,2,[object Object],"""","""","""","""","""","""","""","""","""","""","""","""","""","""","""","""","""","""","""","""","""","""","""","""","""","""","""","""","""","""",12/11/2020 13:33,188.120.158.162,"Mozilla/5.0 (Windows NT 10.0; Win64; x64) AppleWebKit/537.36 (KHTML, like Gecko) Chrome/87.0.4280.88 Safari/537.36",WebKit,Chrome,87.0.4280.88,Windows,10
4,1,"""",html-keyboard-response,67,93428,0.0-7.0-1.2,yuva2,27.102,396,2,396,2,[object Object],"""","""","""","""","""","""","""","""","""","""","""","""","""","""","""","""","""","""","""","""","""","""","""","""","""","""","""","""","""","""",12/11/2020 13:33,188.120.158.162,"Mozilla/5.0 (Windows NT 10.0; Win64; x64) AppleWebKit/537.36 (KHTML, like Gecko) Chrome/87.0.4280.88 Safari/537.36",WebKit,Chrome,87.0.4280.88,Windows,10
4,1,"""",html-keyboard-response,68,94429,0.0-7.0-2.2,yuva2,27.102,396,2,396,2,"""","""","""","""","""","""","""","""",null,"<p style=""font-size: 48px;"">ready?</p>","""",null,"""","""","""","""","""","""","""","""","""","""","""","""","""","""","""","""","""","""","""",12/11/2020 13:33,188.120.158.162,"Mozilla/5.0 (Windows NT 10.0; Win64; x64) AppleWebKit/537.36 (KHTML, like Gecko) Chrome/87.0.4280.88 Safari/537.36",WebKit,Chrome,87.0.4280.88,Windows,10
4,1,"""",html-keyboard-response,69,95430,0.0-7.0-3.2,yuva2,27.102,396,2,396,2,"""","""","""","""","""","""","""","""",null,"<p style=""font-size: 48px;"">ready?</p>","""",null,"""","""","""","""","""","""","""","""","""","""","""","""","""","""","""","""","""","""","""",12/11/2020 13:33,188.120.158.162,"Mozilla/5.0 (Windows NT 10.0; Win64; x64) AppleWebKit/537.36 (KHTML, like Gecko) Chrome/87.0.4280.88 Safari/537.36",WebKit,Chrome,87.0.4280.88,Windows,10
4,1,"""",html-keyboard-response,70,96432,0.0-7.0-4.2,yuva2,27.102,396,2,396,2,"""","""","""","""","""","""","""","""",null,"<p style=""font-size: 48px;"">ready?</p>","""",null,"""","""","""","""","""","""","""","""","""","""","""","""","""","""","""","""","""","""","""",12/11/2020 13:33,188.120.158.162,"Mozilla/5.0 (Windows NT 10.0; Win64; x64) AppleWebKit/537.36 (KHTML, like Gecko) Chrome/87.0.4280.88 Safari/537.36",WebKit,Chrome,87.0.4280.88,Windows,10
4,1,FALSE,animation,71,97053,0.0-7.0-5.2,yuva2,27.102,396,2,396,2,"""","""","""","""","""","""","[{""stimulus"":""img/04_L_filler_absent.jpg"",""time"":322.054999996908},{""stimulus"":""blank"",""time"":562.5}]","[{""key_press"":32,""rt"":617.9899999988265,""stimulus"":""blank""}]",618.045,4,L,"""","""","""","""","""","""","""","""","""","""","""","""","""","""","""","""","1,0",3,"""","""",12/11/2020 13:33,188.120.158.162,"Mozilla/5.0 (Windows NT 10.0; Win64; x64) AppleWebKit/537.36 (KHTML, like Gecko) Chrome/87.0.4280.88 Safari/537.36",WebKit,Chrome,87.0.4280.88,Windows,10
4,1,"""",image-button-response,72,98107,0.0-7.0-6.2,yuva2,27.102,396,2,396,2,"""","""","""","""","""","""","""","""",1050.945,detection grids/04L.jpg,"""","""","""","""","""","""","""","""","""","""","""","""","""","""","""","""",4,"""","""",FALSE,"""",12/11/2020 13:33,188.120.158.162,"Mozilla/5.0 (Windows NT 10.0; Win64; x64) AppleWebKit/537.36 (KHTML, like Gecko) Chrome/87.0.4280.88 Safari/537.36",WebKit,Chrome,87.0.4280.88,Windows,10
4,1,"""",image-button-response,73,98307,0.0-7.0-7.2,yuva2,27.102,396,2,396,2,"""","""","""","""","""","""","""","""",197.87,detection grids/04L.jpg,"""","""","""","""","""","""","""","""","""","""","""","""","""","""","""","""",4,"""","""",FALSE,"""",12/11/2020 13:33,188.120.158.162,"Mozilla/5.0 (Windows NT 10.0; Win64; x64) AppleWebKit/537.36 (KHTML, like Gecko) Chrome/87.0.4280.88 Safari/537.36",WebKit,Chrome,87.0.4280.88,Windows,10
4,1,"""",html-keyboard-response,74,100700,0.0-7.0-9.2-0.2,yuva2,27.102,396,2,396,2,"""","""","""","""","""","""","""","""",2392.305,<div class = 'center'><p style='font-size: 28px;'>It seems that you are not performing the task as instructed.</p>      <p style='font-size: 28px;'>You are reminded to press the space bar only if you have spotted the flickering object.</p>      <p style='font-size: 28px;'>If it keeps recurring we might need to end the experiment.</p>       <p style='font-size: 24px;'><i>Press the space bar to continue</i></p>,"""",32,"""","""","""","""","""","""","""","""","""","""","""","""","""","""","""","""","""","""","""",12/11/2020 13:33,188.120.158.162,"Mozilla/5.0 (Windows NT 10.0; Win64; x64) AppleWebKit/537.36 (KHTML, like Gecko) Chrome/87.0.4280.88 Safari/537.36",WebKit,Chrome,87.0.4280.88,Windows,10
