run_id,condition,success,trial_type,trial_index,time_elapsed,internal_node_id,id,distance,width,train_repeats,card_width_px,condition,experiment_finished,value,final_width_px,scale_factor,item_width,pixels_unit_screen,pixels_per_unit,animation_sequence,responses,rt,stimulus,stimulus_side,key_press,acc,animation_performance,bProblem,sProblem,trial_began,training,timing_response,fade_out_time,fade_in_time,fade_out_length,stimulus_alpha,timing_post_trial,within_ITI,trial,button_pressed,col_row_answers,cb_trial,correct_response,question_order,recorded_at,ip,user_agent,device,browser,browser_version,platform,platform_version
1,1,true,fullscreen,0,2658,0.0-0.0-0.0,A34XCQJG52CD3E,28.886000000000003,531,1,531,2,true,"""","""","""","""","""","""","""","""","""","""","""","""","""","""","""","""","""","""","""","""","""","""","""","""","""","""","""","""","""","""","""","2021-01-02 18:08:50",63.75.250.40,"Mozilla/5.0 (Windows NT 6.3; WOW64) AppleWebKit/537.36 (KHTML, like Gecko) Chrome/87.0.4280.88 Safari/537.36",WebKit,Chrome,87.0.4280.88,Windows,6.3
1,1,"""",call-function,1,2665,0.0-0.0-1.0,A34XCQJG52CD3E,28.886000000000003,531,1,531,2,true,"""","""","""","""","""","""","""","""","""","""","""","""","""","""","""","""","""","""","""","""","""","""","""","""","""","""","""","""","""","""","""","2021-01-02 18:08:50",63.75.250.40,"Mozilla/5.0 (Windows NT 6.3; WOW64) AppleWebKit/537.36 (KHTML, like Gecko) Chrome/87.0.4280.88 Safari/537.36",WebKit,Chrome,87.0.4280.88,Windows,6.3
1,1,"""",new-resize,2,2666,0.0-0.0-2.0,A34XCQJG52CD3E,28.886000000000003,531,1,531,2,true,"""",531,1.048888888888889,3.375,157.33333333333334,150,"""","""","""","""","""","""","""","""","""","""","""","""","""","""","""","""","""","""","""","""","""","""","""","""","""","2021-01-02 18:08:50",63.75.250.40,"Mozilla/5.0 (Windows NT 6.3; WOW64) AppleWebKit/537.36 (KHTML, like Gecko) Chrome/87.0.4280.88 Safari/537.36",WebKit,Chrome,87.0.4280.88,Windows,6.3
1,1,"""",animation,3,2671,0.0-0.0-3.0,A34XCQJG52CD3E,28.886000000000003,531,1,531,2,true,"""","""","""","""","""","""","[{""stimulus"":""img/demo1_absent.jpg"",""time"":2.9749999957857653}]",[],"""",1,o,"""","""","""","""","""","""","""","""","""","""","""","""","""","""","""","""","""","""","""","""","2021-01-02 18:08:50",63.75.250.40,"Mozilla/5.0 (Windows NT 6.3; WOW64) AppleWebKit/537.36 (KHTML, like Gecko) Chrome/87.0.4280.88 Safari/537.36",WebKit,Chrome,87.0.4280.88,Windows,6.3
1,1,"""",html-keyboard-response,4,6019,0.0-0.0-4.0-0.0,A34XCQJG52CD3E,28.886000000000003,531,1,531,2,true,"""","""","""","""","""","""","""","""",3346.4749999984633,"<p style='font-size: 28px;' align='justify'>We finished the calibration stage! We will now continue to the main task of this experiment.</p>                <p style='font-size: 28px;' align='justify'><b>We remind you to make an effort to move as little as possible until the end of the task.</b></p>                <p style='font-size: 28px;'><b>Please read the following instructions carefully.</b></p>                <p style='font-size: 24px;'><i>Press the space bar to continue</i></p>","""",32,"""","""","""","""","""","""","""","""","""","""","""","""","""","""","""","""","""","""","""","2021-01-02 18:08:50",63.75.250.40,"Mozilla/5.0 (Windows NT 6.3; WOW64) AppleWebKit/537.36 (KHTML, like Gecko) Chrome/87.0.4280.88 Safari/537.36",WebKit,Chrome,87.0.4280.88,Windows,6.3
1,1,"""",html-keyboard-response,5,10274,0.0-0.0-4.0-1.0,A34XCQJG52CD3E,28.886000000000003,531,1,531,2,true,"""","""","""","""","""","""","""","""",4251.59500000882,"<p style='font-size: 28px;' align='justify'>This experiment is made up of two different tasks, followed by a short questionnaire.</p>                <p style='font-size: 28px;' align='justify'>Each task should take about 10-20 minutes, and the questionnaire another 5 minutes.</p>                <p style='font-size: 24px;'><i>Press the space bar to continue to the first task's instructions</i></p>","""",32,"""","""","""","""","""","""","""","""","""","""","""","""","""","""","""","""","""","""","""","2021-01-02 18:08:50",63.75.250.40,"Mozilla/5.0 (Windows NT 6.3; WOW64) AppleWebKit/537.36 (KHTML, like Gecko) Chrome/87.0.4280.88 Safari/537.36",WebKit,Chrome,87.0.4280.88,Windows,6.3
1,1,"""",html-keyboard-response,6,11729,0.0-1.0-0.0,A34XCQJG52CD3E,28.886000000000003,531,1,531,2,true,"""","""","""","""","""","""","""","""",1453.8250000041444,"<div class = 'center'><p style='font-size: 28px;'>In this task you will be presented with rapidly       changing patterns of rectangles. Through these rectangles faces will appear. Your task will be to indicate the location of       the faces, or any part of them, as soon as they appear.</p>      <p style='font-size: 24px;' align='center'><i>Press the space bar to continue.</i></p></div>","""",32,"""","""","""","""","""","""","""","""","""","""","""","""","""","""","""","""","""","""","""","2021-01-02 18:08:50",63.75.250.40,"Mozilla/5.0 (Windows NT 6.3; WOW64) AppleWebKit/537.36 (KHTML, like Gecko) Chrome/87.0.4280.88 Safari/537.36",WebKit,Chrome,87.0.4280.88,Windows,6.3
1,1,"""",html-keyboard-response,7,12714,0.0-1.0-1.0,A34XCQJG52CD3E,28.886000000000003,531,1,531,2,true,"""","""","""","""","""","""","""","""",982.2500000009313,"<div class = 'center'><p style='font-size: 28px;'>If a face appeared in the right half       of the screen, press the right key. If a face appeared in the left half       of the screen, press the left key.</p>      <p style='font-size: 24px;' align='center'><i>Press the space bar to continue.</i></p></div>","""",32,"""","""","""","""","""","""","""","""","""","""","""","""","""","""","""","""","""","""","""","2021-01-02 18:08:50",63.75.250.40,"Mozilla/5.0 (Windows NT 6.3; WOW64) AppleWebKit/537.36 (KHTML, like Gecko) Chrome/87.0.4280.88 Safari/537.36",WebKit,Chrome,87.0.4280.88,Windows,6.3
1,1,"""",html-keyboard-response,8,14054,0.0-1.0-2.0,A34XCQJG52CD3E,28.886000000000003,531,1,531,2,true,"""","""","""","""","""","""","""","""",1338.7650000076974,"<div class = 'center'><p style='font-size: 28px;'>Please perform this task as accurately       and quickly as you can.</p>      <p style='font-size: 24px;' align='center'><i>Press the space bar to continue.</i></p></div>","""",32,"""","""","""","""","""","""","""","""","""","""","""","""","""","""","""","""","""","""","""","2021-01-02 18:08:50",63.75.250.40,"Mozilla/5.0 (Windows NT 6.3; WOW64) AppleWebKit/537.36 (KHTML, like Gecko) Chrome/87.0.4280.88 Safari/537.36",WebKit,Chrome,87.0.4280.88,Windows,6.3
1,1,"""",html-keyboard-response,9,15119,0.0-1.0-3.0,A34XCQJG52CD3E,28.886000000000003,531,1,531,2,true,"""","""","""","""","""","""","""","""",1063.8199999957578,"<div class = 'center'><p style='font-size: 28px;'>During the task, please focus your gaze at       the plus sign in the middle.</p>        <p style='font-size: 28px;'><b>Even though the faces appear to the left and right of the plus sign, it is important that you look at the plus         sign at all times.</b></p>        <p style='font-size: 24px;' align='center'></i>Press the space bar to continue.</i></p></div>","""",32,"""","""","""","""","""","""","""","""","""","""","""","""","""","""","""","""","""","""","""","2021-01-02 18:08:50",63.75.250.40,"Mozilla/5.0 (Windows NT 6.3; WOW64) AppleWebKit/537.36 (KHTML, like Gecko) Chrome/87.0.4280.88 Safari/537.36",WebKit,Chrome,87.0.4280.88,Windows,6.3
1,1,"""",html-keyboard-response,10,16164,0.0-1.0-4.0,A34XCQJG52CD3E,28.886000000000003,531,1,531,2,true,"""","""","""","""","""","""","""","""",1042.2899999975925,"<div class = 'center'><p style='font-size: 28px;'>We will start with a short practice.</p>        <p style='font-size: 24px;' align='center'></i>Press the space bar to continue.</i></p></div>","""",32,"""","""","""","""","""","""","""","""","""","""","""","""","""","""","""","""","""","""","""","2021-01-02 18:08:50",63.75.250.40,"Mozilla/5.0 (Windows NT 6.3; WOW64) AppleWebKit/537.36 (KHTML, like Gecko) Chrome/87.0.4280.88 Safari/537.36",WebKit,Chrome,87.0.4280.88,Windows,6.3
1,1,"""",html-keyboard-response,11,31855,0.0-1.0-5.0,A34XCQJG52CD3E,28.886000000000003,531,1,531,2,true,"""","""","""","""","""","""","""","""",15688.930000003893,"<div class='center'>      <img src='keys.jpg'></img>      <p style='font-size: 28px;'>Place your fingers on the 'D' and 'K' keys as shown in the picture.</p>       <p style='font-size: 28px;'>If a face appears on the right side press the right key (K).</p>      <p style='font-size: 28px;'>If a face appears on the left side press the left key (D).</p>      <p>Press either one of these keys to start the practice.</p></div>","""",75,"""","""","""","""","""","""","""","""","""","""","""","""","""","""","""","""","""","""","""","2021-01-02 18:08:50",63.75.250.40,"Mozilla/5.0 (Windows NT 6.3; WOW64) AppleWebKit/537.36 (KHTML, like Gecko) Chrome/87.0.4280.88 Safari/537.36",WebKit,Chrome,87.0.4280.88,Windows,6.3
1,1,"""",html-keyboard-response,12,31861,0.0-2.0-0.0,A34XCQJG52CD3E,28.886000000000003,531,1,531,2,true,"""","""","""","""","""","""","""","""",null,"""","""",null,"""","""","""","""","""","""","""","""","""","""","""","""","""","""","""","""","""","""","""","2021-01-02 18:08:50",63.75.250.40,"Mozilla/5.0 (Windows NT 6.3; WOW64) AppleWebKit/537.36 (KHTML, like Gecko) Chrome/87.0.4280.88 Safari/537.36",WebKit,Chrome,87.0.4280.88,Windows,6.3
1,1,"""",bRMS,13,35037,0.0-2.0-1.0-0.0,A34XCQJG52CD3E,28.886000000000003,531,1,531,2,true,"""","""","""","""","""","""","""","""",1728.465000007418,faces/training/p_0.jpg,0,68,1,"[object Object]",0,0,1609610970450,true,0,20,1,10,0.6,"""","""","""","""","""","""","""","""","2021-01-02 18:08:50",63.75.250.40,"Mozilla/5.0 (Windows NT 6.3; WOW64) AppleWebKit/537.36 (KHTML, like Gecko) Chrome/87.0.4280.88 Safari/537.36",WebKit,Chrome,87.0.4280.88,Windows,6.3
1,1,"""",bRMS,14,37866,0.0-2.0-1.0-0.1,A34XCQJG52CD3E,28.886000000000003,531,1,531,2,true,"""","""","""","""","""","""","""","""",1302.5300000008428,faces/training/p_9.jpg,0,68,1,"[object Object]",0,0,1609610973660,true,0,20,1,10,0.6,"""","""","""","""","""","""","""","""","2021-01-02 18:08:50",63.75.250.40,"Mozilla/5.0 (Windows NT 6.3; WOW64) AppleWebKit/537.36 (KHTML, like Gecko) Chrome/87.0.4280.88 Safari/537.36",WebKit,Chrome,87.0.4280.88,Windows,6.3
1,1,"""",bRMS,15,40635,0.0-2.0-1.0-0.2,A34XCQJG52CD3E,28.886000000000003,531,1,531,2,true,"""","""","""","""","""","""","""","""",1227.2150000062538,faces/training/p_8.jpg,1,75,1,"[object Object]",0,0,1609610976454,true,0,20,1,10,0.6,"""","""","""","""","""","""","""","""","2021-01-02 18:08:50",63.75.250.40,"Mozilla/5.0 (Windows NT 6.3; WOW64) AppleWebKit/537.36 (KHTML, like Gecko) Chrome/87.0.4280.88 Safari/537.36",WebKit,Chrome,87.0.4280.88,Windows,6.3
1,1,"""",bRMS,16,43227,0.0-2.0-1.0-0.3,A34XCQJG52CD3E,28.886000000000003,531,1,531,2,true,"""","""","""","""","""","""","""","""",1169.6650000085356,faces/training/p_7.jpg,0,68,1,"[object Object]",0,3,1609610979247,true,0,20,1,10,0.6,"""","""","""","""","""","""","""","""","2021-01-02 18:08:50",63.75.250.40,"Mozilla/5.0 (Windows NT 6.3; WOW64) AppleWebKit/537.36 (KHTML, like Gecko) Chrome/87.0.4280.88 Safari/537.36",WebKit,Chrome,87.0.4280.88,Windows,6.3
1,1,"""",bRMS,17,44825,0.0-2.0-1.0-0.4,A34XCQJG52CD3E,28.886000000000003,531,1,531,2,true,"""","""","""","""","""","""","""","""",108.53500000666827,faces/training/p_5.jpg,1,68,0,"[object Object]",0,0,1609610981840,true,0,20,1,10,0.6,"""","""","""","""","""","""","""","""","2021-01-02 18:08:50",63.75.250.40,"Mozilla/5.0 (Windows NT 6.3; WOW64) AppleWebKit/537.36 (KHTML, like Gecko) Chrome/87.0.4280.88 Safari/537.36",WebKit,Chrome,87.0.4280.88,Windows,6.3
1,1,"""",bRMS,18,48266,0.0-2.0-1.0-0.5,A34XCQJG52CD3E,28.886000000000003,531,1,531,2,true,"""","""","""","""","""","""","""","""",1919.32000000088,faces/training/p_4.jpg,0,68,1,"[object Object]",0,0,1609610983432,true,0,20,1,10,0.6,"""","""","""","""","""","""","""","""","2021-01-02 18:08:50",63.75.250.40,"Mozilla/5.0 (Windows NT 6.3; WOW64) AppleWebKit/537.36 (KHTML, like Gecko) Chrome/87.0.4280.88 Safari/537.36",WebKit,Chrome,87.0.4280.88,Windows,6.3
1,1,"""",bRMS,19,51405,0.0-2.0-1.0-0.6,A34XCQJG52CD3E,28.886000000000003,531,1,531,2,true,"""","""","""","""","""","""","""","""",1515.9899999998743,faces/training/p_6.jpg,0,68,1,"[object Object]",0,0,1609610986823,true,0,20,1,10,0.6,"""","""","""","""","""","""","""","""","2021-01-02 18:08:50",63.75.250.40,"Mozilla/5.0 (Windows NT 6.3; WOW64) AppleWebKit/537.36 (KHTML, like Gecko) Chrome/87.0.4280.88 Safari/537.36",WebKit,Chrome,87.0.4280.88,Windows,6.3
1,1,"""",bRMS,20,55642,0.0-2.0-1.0-0.7,A34XCQJG52CD3E,28.886000000000003,531,1,531,2,true,"""","""","""","""","""","""","""","""",2865.5799999978626,faces/training/p_2.jpg,1,75,1,"[object Object]",0,0,1609610989971,true,0,20,1,10,0.6,"""","""","""","""","""","""","""","""","2021-01-02 18:08:50",63.75.250.40,"Mozilla/5.0 (Windows NT 6.3; WOW64) AppleWebKit/537.36 (KHTML, like Gecko) Chrome/87.0.4280.88 Safari/537.36",WebKit,Chrome,87.0.4280.88,Windows,6.3
1,1,"""",bRMS,21,59081,0.0-2.0-1.0-0.8,A34XCQJG52CD3E,28.886000000000003,531,1,531,2,true,"""","""","""","""","""","""","""","""",1989.5700000051875,faces/training/p_3.jpg,0,68,1,"[object Object]",0,0,1609610994213,true,0,20,1,10,0.6,"""","""","""","""","""","""","""","""","2021-01-02 18:08:50",63.75.250.40,"Mozilla/5.0 (Windows NT 6.3; WOW64) AppleWebKit/537.36 (KHTML, like Gecko) Chrome/87.0.4280.88 Safari/537.36",WebKit,Chrome,87.0.4280.88,Windows,6.3
1,1,"""",bRMS,22,61765,0.0-2.0-1.0-0.9,A34XCQJG52CD3E,28.886000000000003,531,1,531,2,true,"""","""","""","""","""","""","""","""",1130.7450000022072,faces/training/p_1.jpg,1,75,1,"[object Object]",0,0,1609610997646,true,0,20,1,10,0.6,"""","""","""","""","""","""","""","""","2021-01-02 18:08:50",63.75.250.40,"Mozilla/5.0 (Windows NT 6.3; WOW64) AppleWebKit/537.36 (KHTML, like Gecko) Chrome/87.0.4280.88 Safari/537.36",WebKit,Chrome,87.0.4280.88,Windows,6.3
1,1,"""",html-keyboard-response,23,70615,0.0-3.0-0.0,A34XCQJG52CD3E,28.886000000000003,531,1,531,2,true,"""","""","""","""","""","""","""","""",8846.390000006068,"<div class = 'center'><p style='font-size: 28px;'>You have completed the practice block.</p>  <p style='font-size: 28px;'>You will now continue with the same task. The task may now be more   difficult. It will take about 5-10 minutes, and you will have a short break in the half way point. </p>    <p style='font-size: 24px;'>Press either the 'D' or the 'K' keys to continue.</p></div>","""",75,"""","""","""","""","""","""","""","""","""","""","""","""","""","""","""","""","""","""","""","2021-01-02 18:08:50",63.75.250.40,"Mozilla/5.0 (Windows NT 6.3; WOW64) AppleWebKit/537.36 (KHTML, like Gecko) Chrome/87.0.4280.88 Safari/537.36",WebKit,Chrome,87.0.4280.88,Windows,6.3
1,1,"""",html-keyboard-response,24,73224,0.0-3.0-1.0,A34XCQJG52CD3E,28.886000000000003,531,1,531,2,true,"""","""","""","""","""","""","""","""",2606.0100000031525,"<div class = 'center'><p style='font-size: 28px;'>During the task, please focus your gaze at   the plus sign in the middle.</p>    <p style='font-size: 28px;'><b>Even though the faces appear to the left    and right of the plus sign, it is important that you look at the plus     sign at all times.</b></p>    <p style='font-size: 26px;'>Press either the 'D' or the 'K' keys to start the task.</p></div>","""",75,"""","""","""","""","""","""","""","""","""","""","""","""","""","""","""","""","""","""","""","2021-01-02 18:08:50",63.75.250.40,"Mozilla/5.0 (Windows NT 6.3; WOW64) AppleWebKit/537.36 (KHTML, like Gecko) Chrome/87.0.4280.88 Safari/537.36",WebKit,Chrome,87.0.4280.88,Windows,6.3
1,1,"""",bRMS,25,75589,0.0-4.0-0.0,A34XCQJG52CD3E,28.886000000000003,531,1,531,2,true,"""","""","""","""","""","""","""","""",1440.679999999702,faces/1.jpg,1,75,1,"[object Object]",0,0,1609611011781,"""",0,20,1,10,0.4,100,900,1,"""","""","""","""","""","2021-01-02 18:08:50",63.75.250.40,"Mozilla/5.0 (Windows NT 6.3; WOW64) AppleWebKit/537.36 (KHTML, like Gecko) Chrome/87.0.4280.88 Safari/537.36",WebKit,Chrome,87.0.4280.88,Windows,6.3
1,1,"""",bRMS,26,77505,0.0-4.0-2.0,A34XCQJG52CD3E,28.886000000000003,531,1,531,2,true,"""","""","""","""","""","""","""","""",987.3050000023795,faces/9.jpg,0,68,1,"[object Object]",0,0,1609611014152,"""",0,20,1,10,0.4,100,900,2,"""","""","""","""","""","2021-01-02 18:08:50",63.75.250.40,"Mozilla/5.0 (Windows NT 6.3; WOW64) AppleWebKit/537.36 (KHTML, like Gecko) Chrome/87.0.4280.88 Safari/537.36",WebKit,Chrome,87.0.4280.88,Windows,6.3
1,1,"""",bRMS,27,80937,0.0-4.0-4.0,A34XCQJG52CD3E,28.886000000000003,531,1,531,2,true,"""","""","""","""","""","""","""","""",2503.9600000018254,faces/5.jpg,1,75,1,"[object Object]",0,0,1609611016071,"""",0,20,1,10,0.4,100,900,3,"""","""","""","""","""","2021-01-02 18:08:50",63.75.250.40,"Mozilla/5.0 (Windows NT 6.3; WOW64) AppleWebKit/537.36 (KHTML, like Gecko) Chrome/87.0.4280.88 Safari/537.36",WebKit,Chrome,87.0.4280.88,Windows,6.3
1,1,"""",bRMS,28,83755,0.0-4.0-6.0,A34XCQJG52CD3E,28.886000000000003,531,1,531,2,true,"""","""","""","""","""","""","""","""",1890.8099999971455,faces/3.jpg,1,75,1,"[object Object]",0,0,1609611019496,"""",0,20,1,10,0.4,100,900,4,"""","""","""","""","""","2021-01-02 18:08:50",63.75.250.40,"Mozilla/5.0 (Windows NT 6.3; WOW64) AppleWebKit/537.36 (KHTML, like Gecko) Chrome/87.0.4280.88 Safari/537.36",WebKit,Chrome,87.0.4280.88,Windows,6.3
1,1,"""",bRMS,29,85382,0.0-4.0-8.0,A34XCQJG52CD3E,28.886000000000003,531,1,531,2,true,"""","""","""","""","""","""","""","""",702.2049999941373,faces/19.jpg,1,75,1,"[object Object]",0,0,1609611022314,"""",0,20,1,10,0.4,100,900,5,"""","""","""","""","""","2021-01-02 18:08:50",63.75.250.40,"Mozilla/5.0 (Windows NT 6.3; WOW64) AppleWebKit/537.36 (KHTML, like Gecko) Chrome/87.0.4280.88 Safari/537.36",WebKit,Chrome,87.0.4280.88,Windows,6.3
1,1,"""",bRMS,30,87252,0.0-4.0-10.0,A34XCQJG52CD3E,28.886000000000003,531,1,531,2,true,"""","""","""","""","""","""","""","""",942.1350000047823,faces/17.jpg,0,75,0,"[object Object]",0,0,1609611023947,"""",0,20,1,10,0.4,100,900,6,"""","""","""","""","""","2021-01-02 18:08:50",63.75.250.40,"Mozilla/5.0 (Windows NT 6.3; WOW64) AppleWebKit/537.36 (KHTML, like Gecko) Chrome/87.0.4280.88 Safari/537.36",WebKit,Chrome,87.0.4280.88,Windows,6.3
1,1,"""",bRMS,31,89716,0.0-4.0-12.0,A34XCQJG52CD3E,28.886000000000003,531,1,531,2,true,"""","""","""","""","""","""","""","""",1539.5700000080978,faces/13.jpg,0,68,1,"[object Object]",0,0,1609611025806,"""",0,20,1,10,0.4,100,900,7,"""","""","""","""","""","2021-01-02 18:08:50",63.75.250.40,"Mozilla/5.0 (Windows NT 6.3; WOW64) AppleWebKit/537.36 (KHTML, like Gecko) Chrome/87.0.4280.88 Safari/537.36",WebKit,Chrome,87.0.4280.88,Windows,6.3
1,1,"""",bRMS,32,91573,0.0-4.0-14.0,A34XCQJG52CD3E,28.886000000000003,531,1,531,2,true,"""","""","""","""","""","""","""","""",927.7099999890197,faces/21.jpg,1,75,1,"[object Object]",0,0,1609611028281,"""",0,20,1,10,0.4,100,900,8,"""","""","""","""","""","2021-01-02 18:08:50",63.75.250.40,"Mozilla/5.0 (Windows NT 6.3; WOW64) AppleWebKit/537.36 (KHTML, like Gecko) Chrome/87.0.4280.88 Safari/537.36",WebKit,Chrome,87.0.4280.88,Windows,6.3
1,1,"""",bRMS,33,94666,0.0-4.0-16.0,A34XCQJG52CD3E,28.886000000000003,531,1,531,2,true,"""","""","""","""","""","""","""","""",2168.3849999972153,faces/7.jpg,0,68,1,"[object Object]",0,0,1609611030138,"""",0,20,1,10,0.4,100,900,9,"""","""","""","""","""","2021-01-02 18:08:50",63.75.250.40,"Mozilla/5.0 (Windows NT 6.3; WOW64) AppleWebKit/537.36 (KHTML, like Gecko) Chrome/87.0.4280.88 Safari/537.36",WebKit,Chrome,87.0.4280.88,Windows,6.3
1,1,"""",bRMS,34,96125,0.0-4.0-18.0,A34XCQJG52CD3E,28.886000000000003,531,1,531,2,true,"""","""","""","""","""","""","""","""",530.6999999884283,faces/11.jpg,0,68,1,"[object Object]",0,0,1609611033227,"""",0,20,1,10,0.4,100,900,10,"""","""","""","""","""","2021-01-02 18:08:50",63.75.250.40,"Mozilla/5.0 (Windows NT 6.3; WOW64) AppleWebKit/537.36 (KHTML, like Gecko) Chrome/87.0.4280.88 Safari/537.36",WebKit,Chrome,87.0.4280.88,Windows,6.3
1,1,"""",bRMS,35,101129,0.0-4.0-20.0,A34XCQJG52CD3E,28.886000000000003,531,1,531,2,true,"""","""","""","""","""","""","""","""",4075.3399999957765,faces/15.jpg,1,75,1,"[object Object]",0,0,1609611034680,"""",0,20,1,10,0.4,100,900,11,"""","""","""","""","""","2021-01-02 18:08:50",63.75.250.40,"Mozilla/5.0 (Windows NT 6.3; WOW64) AppleWebKit/537.36 (KHTML, like Gecko) Chrome/87.0.4280.88 Safari/537.36",WebKit,Chrome,87.0.4280.88,Windows,6.3
1,1,"""",bRMS,36,103060,0.0-4.0-22.0,A34XCQJG52CD3E,28.886000000000003,531,1,531,2,true,"""","""","""","""","""","""","""","""",1003.100000001723,faces/11.jpg,1,75,1,"[object Object]",0,0,1609611039687,"""",0,20,1,10,0.4,100,900,12,"""","""","""","""","""","2021-01-02 18:08:50",63.75.250.40,"Mozilla/5.0 (Windows NT 6.3; WOW64) AppleWebKit/537.36 (KHTML, like Gecko) Chrome/87.0.4280.88 Safari/537.36",WebKit,Chrome,87.0.4280.88,Windows,6.3
1,1,"""",bRMS,37,105766,0.0-4.0-24.0,A34XCQJG52CD3E,28.886000000000003,531,1,531,2,true,"""","""","""","""","""","""","""","""",1568.924999999581,faces/1.jpg,0,68,1,"[object Object]",0,0,1609611041613,"""",0,20,1,10,0.4,100,900,13,"""","""","""","""","""","2021-01-02 18:08:50",63.75.250.40,"Mozilla/5.0 (Windows NT 6.3; WOW64) AppleWebKit/537.36 (KHTML, like Gecko) Chrome/87.0.4280.88 Safari/537.36",WebKit,Chrome,87.0.4280.88,Windows,6.3
1,1,"""",bRMS,38,107145,0.0-4.0-26.0,A34XCQJG52CD3E,28.886000000000003,531,1,531,2,true,"""","""","""","""","""","""","""","""",451.15500000247266,faces/15.jpg,0,68,1,"[object Object]",0,0,1609611044326,"""",0,20,1,10,0.4,100,900,14,"""","""","""","""","""","2021-01-02 18:08:50",63.75.250.40,"Mozilla/5.0 (Windows NT 6.3; WOW64) AppleWebKit/537.36 (KHTML, like Gecko) Chrome/87.0.4280.88 Safari/537.36",WebKit,Chrome,87.0.4280.88,Windows,6.3
1,1,"""",bRMS,39,109790,0.0-4.0-28.0,A34XCQJG52CD3E,28.886000000000003,531,1,531,2,true,"""","""","""","""","""","""","""","""",1720.7999999955064,faces/13.jpg,0,68,1,"[object Object]",0,0,1609611045700,"""",0,20,1,10,0.4,100,900,15,"""","""","""","""","""","2021-01-02 18:08:50",63.75.250.40,"Mozilla/5.0 (Windows NT 6.3; WOW64) AppleWebKit/537.36 (KHTML, like Gecko) Chrome/87.0.4280.88 Safari/537.36",WebKit,Chrome,87.0.4280.88,Windows,6.3
1,1,"""",bRMS,40,111680,0.0-4.0-30.0,A34XCQJG52CD3E,28.886000000000003,531,1,531,2,true,"""","""","""","""","""","""","""","""",962.4349999940023,faces/17.jpg,1,75,1,"[object Object]",0,0,1609611048347,"""",0,20,1,10,0.4,100,900,16,"""","""","""","""","""","2021-01-02 18:08:50",63.75.250.40,"Mozilla/5.0 (Windows NT 6.3; WOW64) AppleWebKit/537.36 (KHTML, like Gecko) Chrome/87.0.4280.88 Safari/537.36",WebKit,Chrome,87.0.4280.88,Windows,6.3
1,1,"""",bRMS,41,112844,0.0-4.0-32.0,A34XCQJG52CD3E,28.886000000000003,531,1,531,2,true,"""","""","""","""","""","""","""","""",237.99500000313856,faces/3.jpg,1,75,1,"[object Object]",0,0,1609611050244,"""",0,20,1,10,0.4,100,900,17,"""","""","""","""","""","2021-01-02 18:08:50",63.75.250.40,"Mozilla/5.0 (Windows NT 6.3; WOW64) AppleWebKit/537.36 (KHTML, like Gecko) Chrome/87.0.4280.88 Safari/537.36",WebKit,Chrome,87.0.4280.88,Windows,6.3
1,1,"""",bRMS,42,115291,0.0-4.0-34.0,A34XCQJG52CD3E,28.886000000000003,531,1,531,2,true,"""","""","""","""","""","""","""","""",1517.9649999918183,faces/21.jpg,0,68,1,"[object Object]",0,0,1609611051566,"""",0,20,1,10,0.4,100,900,18,"""","""","""","""","""","2021-01-02 18:08:50",63.75.250.40,"Mozilla/5.0 (Windows NT 6.3; WOW64) AppleWebKit/537.36 (KHTML, like Gecko) Chrome/87.0.4280.88 Safari/537.36",WebKit,Chrome,87.0.4280.88,Windows,6.3
1,1,"""",bRMS,43,117436,0.0-4.0-36.0,A34XCQJG52CD3E,28.886000000000003,531,1,531,2,true,"""","""","""","""","""","""","""","""",1218.6400000064168,faces/7.jpg,0,68,1,"[object Object]",0,0,1609611053845,"""",0,20,1,10,0.4,100,900,19,"""","""","""","""","""","2021-01-02 18:08:50",63.75.250.40,"Mozilla/5.0 (Windows NT 6.3; WOW64) AppleWebKit/537.36 (KHTML, like Gecko) Chrome/87.0.4280.88 Safari/537.36",WebKit,Chrome,87.0.4280.88,Windows,6.3
1,1,"""",bRMS,44,119747,0.0-4.0-38.0,A34XCQJG52CD3E,28.886000000000003,531,1,531,2,true,"""","""","""","""","""","""","""","""",1384.8399999988033,faces/9.jpg,0,68,1,"[object Object]",0,0,1609611056003,"""",0,20,1,10,0.4,100,900,20,"""","""","""","""","""","2021-01-02 18:08:50",63.75.250.40,"Mozilla/5.0 (Windows NT 6.3; WOW64) AppleWebKit/537.36 (KHTML, like Gecko) Chrome/87.0.4280.88 Safari/537.36",WebKit,Chrome,87.0.4280.88,Windows,6.3
1,1,"""",bRMS,45,122697,0.0-4.0-40.0,A34XCQJG52CD3E,28.886000000000003,531,1,531,2,true,"""","""","""","""","""","""","""","""",2024.7249999956694,faces/19.jpg,0,68,1,"[object Object]",0,0,1609611058317,"""",0,20,1,10,0.4,100,900,21,"""","""","""","""","""","2021-01-02 18:08:50",63.75.250.40,"Mozilla/5.0 (Windows NT 6.3; WOW64) AppleWebKit/537.36 (KHTML, like Gecko) Chrome/87.0.4280.88 Safari/537.36",WebKit,Chrome,87.0.4280.88,Windows,6.3
1,1,"""",bRMS,46,124717,0.0-4.0-42.0,A34XCQJG52CD3E,28.886000000000003,531,1,531,2,true,"""","""","""","""","""","""","""","""",1091.9450000073994,faces/5.jpg,1,68,0,"[object Object]",0,0,1609611061257,"""",0,20,1,10,0.4,100,900,22,"""","""","""","""","""","2021-01-02 18:08:50",63.75.250.40,"Mozilla/5.0 (Windows NT 6.3; WOW64) AppleWebKit/537.36 (KHTML, like Gecko) Chrome/87.0.4280.88 Safari/537.36",WebKit,Chrome,87.0.4280.88,Windows,6.3
1,1,"""",html-keyboard-response,47,126924,0.0-4.0-44.0,A34XCQJG52CD3E,28.886000000000003,531,1,531,2,true,"""","""","""","""","""","""","""","""",2203.6499999958323,"<div class = 'center'><p style='font-size: 28px;'>This is a break.</p>  <p style='font-size: 24px;'>Press the space bar to continue.</p>","""",32,"""","""","""","""","""","""","""","""","""","""","""","""","""","""","""","""","""","""","""","2021-01-02 18:08:50",63.75.250.40,"Mozilla/5.0 (Windows NT 6.3; WOW64) AppleWebKit/537.36 (KHTML, like Gecko) Chrome/87.0.4280.88 Safari/537.36",WebKit,Chrome,87.0.4280.88,Windows,6.3
1,1,"""",bRMS,48,128930,0.0-4.0-46.0,A34XCQJG52CD3E,28.886000000000003,531,1,531,2,true,"""","""","""","""","""","""","""","""",1077.9199999960838,faces/17.jpg,1,75,1,"[object Object]",0,0,1609611065482,"""",0,20,1,10,0.4,100,900,23,"""","""","""","""","""","2021-01-02 18:08:50",63.75.250.40,"Mozilla/5.0 (Windows NT 6.3; WOW64) AppleWebKit/537.36 (KHTML, like Gecko) Chrome/87.0.4280.88 Safari/537.36",WebKit,Chrome,87.0.4280.88,Windows,6.3
1,1,"""",bRMS,49,130935,0.0-4.0-48.0,A34XCQJG52CD3E,28.886000000000003,531,1,531,2,true,"""","""","""","""","""","""","""","""",1080.8649999962654,faces/11.jpg,0,68,1,"[object Object]",2,0,1609611067492,"""",0,20,1,10,0.4,100,900,24,"""","""","""","""","""","2021-01-02 18:08:50",63.75.250.40,"Mozilla/5.0 (Windows NT 6.3; WOW64) AppleWebKit/537.36 (KHTML, like Gecko) Chrome/87.0.4280.88 Safari/537.36",WebKit,Chrome,87.0.4280.88,Windows,6.3
1,1,"""",bRMS,50,132835,0.0-4.0-50.0,A34XCQJG52CD3E,28.886000000000003,531,1,531,2,true,"""","""","""","""","""","""","""","""",973.0899999995017,faces/1.jpg,0,68,1,"[object Object]",0,1,1609611069499,"""",0,20,1,10,0.4,100,900,25,"""","""","""","""","""","2021-01-02 18:08:50",63.75.250.40,"Mozilla/5.0 (Windows NT 6.3; WOW64) AppleWebKit/537.36 (KHTML, like Gecko) Chrome/87.0.4280.88 Safari/537.36",WebKit,Chrome,87.0.4280.88,Windows,6.3
1,1,"""",bRMS,51,134737,0.0-4.0-52.0,A34XCQJG52CD3E,28.886000000000003,531,1,531,2,true,"""","""","""","""","""","""","""","""",976.1650000000373,faces/13.jpg,1,75,1,"[object Object]",0,0,1609611071391,"""",0,20,1,10,0.4,100,900,26,"""","""","""","""","""","2021-01-02 18:08:50",63.75.250.40,"Mozilla/5.0 (Windows NT 6.3; WOW64) AppleWebKit/537.36 (KHTML, like Gecko) Chrome/87.0.4280.88 Safari/537.36",WebKit,Chrome,87.0.4280.88,Windows,6.3
1,1,"""",bRMS,52,137345,0.0-4.0-54.0,A34XCQJG52CD3E,28.886000000000003,531,1,531,2,true,"""","""","""","""","""","""","""","""",1682.0650000008754,faces/3.jpg,1,75,1,"[object Object]",0,0,1609611073295,"""",0,20,1,10,0.4,100,900,27,"""","""","""","""","""","2021-01-02 18:08:50",63.75.250.40,"Mozilla/5.0 (Windows NT 6.3; WOW64) AppleWebKit/537.36 (KHTML, like Gecko) Chrome/87.0.4280.88 Safari/537.36",WebKit,Chrome,87.0.4280.88,Windows,6.3
1,1,"""",bRMS,53,139219,0.0-4.0-56.0,A34XCQJG52CD3E,28.886000000000003,531,1,531,2,true,"""","""","""","""","""","""","""","""",947.6850000064587,faces/7.jpg,0,68,1,"[object Object]",0,0,1609611075935,"""",0,20,1,10,0.4,100,900,28,"""","""","""","""","""","2021-01-02 18:08:50",63.75.250.40,"Mozilla/5.0 (Windows NT 6.3; WOW64) AppleWebKit/537.36 (KHTML, like Gecko) Chrome/87.0.4280.88 Safari/537.36",WebKit,Chrome,87.0.4280.88,Windows,6.3
1,1,"""",bRMS,54,141388,0.0-4.0-58.0,A34XCQJG52CD3E,28.886000000000003,531,1,531,2,true,"""","""","""","""","""","""","""","""",1191.88500000746,faces/9.jpg,1,75,1,"[object Object]",0,0,1609611077829,"""",0,20,1,10,0.4,100,900,29,"""","""","""","""","""","2021-01-02 18:08:50",63.75.250.40,"Mozilla/5.0 (Windows NT 6.3; WOW64) AppleWebKit/537.36 (KHTML, like Gecko) Chrome/87.0.4280.88 Safari/537.36",WebKit,Chrome,87.0.4280.88,Windows,6.3
1,1,"""",bRMS,55,144986,0.0-4.0-60.0,A34XCQJG52CD3E,28.886000000000003,531,1,531,2,true,"""","""","""","""","""","""","""","""",2672.9599999962375,faces/19.jpg,0,68,1,"[object Object]",0,0,1609611079950,"""",0,20,1,10,0.4,100,900,30,"""","""","""","""","""","2021-01-02 18:08:50",63.75.250.40,"Mozilla/5.0 (Windows NT 6.3; WOW64) AppleWebKit/537.36 (KHTML, like Gecko) Chrome/87.0.4280.88 Safari/537.36",WebKit,Chrome,87.0.4280.88,Windows,6.3
1,1,"""",bRMS,56,149858,0.0-4.0-62.0,A34XCQJG52CD3E,28.886000000000003,531,1,531,2,true,"""","""","""","""","""","""","""","""",3943.0149999971036,faces/15.jpg,0,68,1,"[object Object]",0,0,1609611083545,"""",0,20,1,10,0.4,100,900,31,"""","""","""","""","""","2021-01-02 18:08:50",63.75.250.40,"Mozilla/5.0 (Windows NT 6.3; WOW64) AppleWebKit/537.36 (KHTML, like Gecko) Chrome/87.0.4280.88 Safari/537.36",WebKit,Chrome,87.0.4280.88,Windows,6.3
1,1,"""",bRMS,57,152195,0.0-4.0-64.0,A34XCQJG52CD3E,28.886000000000003,531,1,531,2,true,"""","""","""","""","""","""","""","""",1412.1699999959674,faces/5.jpg,0,68,1,"[object Object]",0,0,1609611088429,"""",0,20,1,10,0.4,100,900,32,"""","""","""","""","""","2021-01-02 18:08:50",63.75.250.40,"Mozilla/5.0 (Windows NT 6.3; WOW64) AppleWebKit/537.36 (KHTML, like Gecko) Chrome/87.0.4280.88 Safari/537.36",WebKit,Chrome,87.0.4280.88,Windows,6.3
1,1,"""",bRMS,58,154069,0.0-4.0-66.0,A34XCQJG52CD3E,28.886000000000003,531,1,531,2,true,"""","""","""","""","""","""","""","""",947.0200000068871,faces/21.jpg,1,75,1,"[object Object]",0,0,1609611090785,"""",0,20,1,10,0.4,100,900,33,"""","""","""","""","""","2021-01-02 18:08:50",63.75.250.40,"Mozilla/5.0 (Windows NT 6.3; WOW64) AppleWebKit/537.36 (KHTML, like Gecko) Chrome/87.0.4280.88 Safari/537.36",WebKit,Chrome,87.0.4280.88,Windows,6.3
1,1,"""",bRMS,59,156276,0.0-4.0-68.0,A34XCQJG52CD3E,28.886000000000003,531,1,531,2,true,"""","""","""","""","""","""","""","""",1274.424999995972,faces/17.jpg,1,75,1,"[object Object]",0,0,1609611092689,"""",0,20,1,10,0.4,100,900,34,"""","""","""","""","""","2021-01-02 18:08:50",63.75.250.40,"Mozilla/5.0 (Windows NT 6.3; WOW64) AppleWebKit/537.36 (KHTML, like Gecko) Chrome/87.0.4280.88 Safari/537.36",WebKit,Chrome,87.0.4280.88,Windows,6.3
1,1,"""",bRMS,60,159126,0.0-4.0-70.0,A34XCQJG52CD3E,28.886000000000003,531,1,531,2,true,"""","""","""","""","""","""","""","""",1921.3850000087405,faces/21.jpg,1,75,1,"[object Object]",0,0,1609611094834,"""",0,20,1,10,0.4,100,900,35,"""","""","""","""","""","2021-01-02 18:08:50",63.75.250.40,"Mozilla/5.0 (Windows NT 6.3; WOW64) AppleWebKit/537.36 (KHTML, like Gecko) Chrome/87.0.4280.88 Safari/537.36",WebKit,Chrome,87.0.4280.88,Windows,6.3
1,1,"""",bRMS,61,166337,0.0-4.0-72.0,A34XCQJG52CD3E,28.886000000000003,531,1,531,2,true,"""","""","""","""","""","""","""","""",6281.714999990072,faces/5.jpg,0,75,0,"[object Object]",0,0,1609611097681,"""",0,20,1,10,0.4,100,900,36,"""","""","""","""","""","2021-01-02 18:08:50",63.75.250.40,"Mozilla/5.0 (Windows NT 6.3; WOW64) AppleWebKit/537.36 (KHTML, like Gecko) Chrome/87.0.4280.88 Safari/537.36",WebKit,Chrome,87.0.4280.88,Windows,6.3
1,1,"""",bRMS,62,168406,0.0-4.0-74.0,A34XCQJG52CD3E,28.886000000000003,531,1,531,2,true,"""","""","""","""","""","""","""","""",1139.9700000038138,faces/7.jpg,1,75,1,"[object Object]",0,0,1609611104898,"""",0,20,1,10,0.4,100,900,37,"""","""","""","""","""","2021-01-02 18:08:50",63.75.250.40,"Mozilla/5.0 (Windows NT 6.3; WOW64) AppleWebKit/537.36 (KHTML, like Gecko) Chrome/87.0.4280.88 Safari/537.36",WebKit,Chrome,87.0.4280.88,Windows,6.3
1,1,"""",bRMS,63,170705,0.0-4.0-76.0,A34XCQJG52CD3E,28.886000000000003,531,1,531,2,true,"""","""","""","""","""","""","""","""",1374.5049999997718,faces/13.jpg,0,68,1,"[object Object]",0,0,1609611106974,"""",0,20,1,10,0.4,100,900,38,"""","""","""","""","""","2021-01-02 18:08:50",63.75.250.40,"Mozilla/5.0 (Windows NT 6.3; WOW64) AppleWebKit/537.36 (KHTML, like Gecko) Chrome/87.0.4280.88 Safari/537.36",WebKit,Chrome,87.0.4280.88,Windows,6.3
1,1,"""",bRMS,64,175522,0.0-4.0-78.0,A34XCQJG52CD3E,28.886000000000003,531,1,531,2,true,"""","""","""","""","""","""","""","""",3887.974999990547,faces/1.jpg,0,68,1,"[object Object]",0,0,1609611109267,"""",0,20,1,10,0.4,100,900,39,"""","""","""","""","""","2021-01-02 18:08:50",63.75.250.40,"Mozilla/5.0 (Windows NT 6.3; WOW64) AppleWebKit/537.36 (KHTML, like Gecko) Chrome/87.0.4280.88 Safari/537.36",WebKit,Chrome,87.0.4280.88,Windows,6.3
1,1,"""",bRMS,65,177635,0.0-4.0-80.0,A34XCQJG52CD3E,28.886000000000003,531,1,531,2,true,"""","""","""","""","""","""","""","""",1188.7949999945704,faces/9.jpg,1,75,1,"[object Object]",0,0,1609611114080,"""",0,20,1,10,0.4,100,900,40,"""","""","""","""","""","2021-01-02 18:08:50",63.75.250.40,"Mozilla/5.0 (Windows NT 6.3; WOW64) AppleWebKit/537.36 (KHTML, like Gecko) Chrome/87.0.4280.88 Safari/537.36",WebKit,Chrome,87.0.4280.88,Windows,6.3
1,1,"""",bRMS,66,181015,0.0-4.0-82.0,A34XCQJG52CD3E,28.886000000000003,531,1,531,2,true,"""","""","""","""","""","""","""","""",2308.455000005779,faces/19.jpg,1,75,1,"[object Object]",0,0,1609611116206,"""",0,20,1,10,0.4,100,900,41,"""","""","""","""","""","2021-01-02 18:08:50",63.75.250.40,"Mozilla/5.0 (Windows NT 6.3; WOW64) AppleWebKit/537.36 (KHTML, like Gecko) Chrome/87.0.4280.88 Safari/537.36",WebKit,Chrome,87.0.4280.88,Windows,6.3
1,1,"""",bRMS,67,183866,0.0-4.0-84.0,A34XCQJG52CD3E,28.886000000000003,531,1,531,2,true,"""","""","""","""","""","""","""","""",1924.2400000075577,faces/15.jpg,1,75,1,"[object Object]",0,0,1609611119569,"""",0,20,1,10,0.4,100,900,42,"""","""","""","""","""","2021-01-02 18:08:50",63.75.250.40,"Mozilla/5.0 (Windows NT 6.3; WOW64) AppleWebKit/537.36 (KHTML, like Gecko) Chrome/87.0.4280.88 Safari/537.36",WebKit,Chrome,87.0.4280.88,Windows,6.3
1,1,"""",bRMS,68,185986,0.0-4.0-86.0,A34XCQJG52CD3E,28.886000000000003,531,1,531,2,true,"""","""","""","""","""","""","""","""",1190.535000001546,faces/11.jpg,1,75,1,"[object Object]",0,0,1609611122424,"""",0,20,1,10,0.4,100,900,43,"""","""","""","""","""","2021-01-02 18:08:50",63.75.250.40,"Mozilla/5.0 (Windows NT 6.3; WOW64) AppleWebKit/537.36 (KHTML, like Gecko) Chrome/87.0.4280.88 Safari/537.36",WebKit,Chrome,87.0.4280.88,Windows,6.3
1,1,"""",bRMS,69,187504,0.0-4.0-87.0,A34XCQJG52CD3E,28.886000000000003,531,1,531,2,true,"""","""","""","""","""","""","""","""",594.4149999995716,faces/3.jpg,0,75,0,"[object Object]",0,0,1609611124540,"""",0,20,1,10,0.4,100,900,44,"""","""","""","""","""","2021-01-02 18:08:50",63.75.250.40,"Mozilla/5.0 (Windows NT 6.3; WOW64) AppleWebKit/537.36 (KHTML, like Gecko) Chrome/87.0.4280.88 Safari/537.36",WebKit,Chrome,87.0.4280.88,Windows,6.3
1,1,"""",html-keyboard-response,70,191895,0.0-5.0-0.0,A34XCQJG52CD3E,28.886000000000003,531,1,531,2,true,"""","""","""","""","""","""","""","""",4383.889999997336,"<p style='font-size: 28px;'>First part is done!</p>    <p style='font-size: 28px;'>You've finished about half of the study, great job!</p>    <p style='font-size: 24px;' align='center'><i>Press the space bar to continue.</i></p>","""",32,"""","""","""","""","""","""","""","""","""","""","""","""","""","""","""","""","""","""","""","2021-01-02 18:08:50",63.75.250.40,"Mozilla/5.0 (Windows NT 6.3; WOW64) AppleWebKit/537.36 (KHTML, like Gecko) Chrome/87.0.4280.88 Safari/537.36",WebKit,Chrome,87.0.4280.88,Windows,6.3
1,1,"""",html-keyboard-response,71,193234,0.0-5.0-1.0,A34XCQJG52CD3E,28.886000000000003,531,1,531,2,true,"""","""","""","""","""","""","""","""",1338.0949999991572,"<p style='font-size: 28px;'>We will now go on to the second task.</p>    <p style='font-size: 28px;'>Please read the following instructions carefully.</p>    <p style='font-size: 24px;' align='center'><i>Press the space bar to continue.</i></p>","""",32,"""","""","""","""","""","""","""","""","""","""","""","""","""","""","""","""","""","""","""","2021-01-02 18:08:50",63.75.250.40,"Mozilla/5.0 (Windows NT 6.3; WOW64) AppleWebKit/537.36 (KHTML, like Gecko) Chrome/87.0.4280.88 Safari/537.36",WebKit,Chrome,87.0.4280.88,Windows,6.3
1,1,"""",html-keyboard-response,72,201175,0.0-6.0-0.0-0.0,A34XCQJG52CD3E,28.886000000000003,531,1,531,2,true,"""","""","""","""","""","""","""","""",7937.135000000126,"<p style='font-size: 28px;' align='justify'>In this part you will be asked to find a single flickering object within a scene.    Each time you will be presented with one scene. This scene will be static, except for one single object that will be appearing and disappearing.    Your goal will be to detect this object as quickly and accurately as you can.</p>    <p style='font-size: 28px;' align='justify'>We will ask you to place your finger over the space bar, and once you have found the object press the space bar <b>as quickly as possible.</b></p>    <p style='font-size: 28px;' align='justify'>For each scene, you will have up to 60 seconds to do so. After that you will be asked about the location of the object.</P>    <br>    <p style='font-size: 28px;'>We will now continue with a short practice before starting the task.</p>    <br>    <p style='font-size: 24px;'><i>Press the space bar to continue</i></p>","""",32,"""","""","""","""","""","""","""","""","""","""","""","""","""","""","""","""","""","""","""","2021-01-02 18:08:50",63.75.250.40,"Mozilla/5.0 (Windows NT 6.3; WOW64) AppleWebKit/537.36 (KHTML, like Gecko) Chrome/87.0.4280.88 Safari/537.36",WebKit,Chrome,87.0.4280.88,Windows,6.3
1,1,"""",animation,73,203235,0.0-6.0-1.0,A34XCQJG52CD3E,28.886000000000003,531,1,531,2,true,"""","""","""","""","""","""","[{""stimulus"":""img/demo1_absent.jpg"",""time"":502.28499999502674},{""stimulus"":""img/demo1_absent.jpg"",""time"":1002.6999999972759},{""stimulus"":""img/demo1_present.jpg"",""time"":1503.1749999907333},{""stimulus"":""img/demo1_present.jpg"",""time"":2002.7199999894947}]","[{""key_press"":32,""rt"":2057.669999994687,""stimulus"":""img/demo1_present.jpg""}]",2057.8549999918323,1,o,"""","""","""","""","""","""",true,"""","""","""","""","""","""","""","""","""","""","""","""","""","2021-01-02 18:08:50",63.75.250.40,"Mozilla/5.0 (Windows NT 6.3; WOW64) AppleWebKit/537.36 (KHTML, like Gecko) Chrome/87.0.4280.88 Safari/537.36",WebKit,Chrome,87.0.4280.88,Windows,6.3
1,1,"""",image-button-response,74,218081,0.0-6.0-2.0,A34XCQJG52CD3E,28.886000000000003,531,1,531,2,true,"""","""","""","""","""","""","""","""",14839.11500000977,"detection grids/demo1.jpg","""","""","""","""","""","""","""",true,"""","""","""","""","""","""","""","""",3,"""","""","""","""","2021-01-02 18:08:50",63.75.250.40,"Mozilla/5.0 (Windows NT 6.3; WOW64) AppleWebKit/537.36 (KHTML, like Gecko) Chrome/87.0.4280.88 Safari/537.36",WebKit,Chrome,87.0.4280.88,Windows,6.3
1,1,"""",image-button-response,75,223130,0.0-6.0-3.0,A34XCQJG52CD3E,28.886000000000003,531,1,531,2,true,"""","""","""","""","""","""","""","""",5047.034999995958,"detection grids/demo1.jpg","""","""","""","""","""","""","""",true,"""","""","""","""","""","""","""","""",2,"""","""","""","""","2021-01-02 18:08:50",63.75.250.40,"Mozilla/5.0 (Windows NT 6.3; WOW64) AppleWebKit/537.36 (KHTML, like Gecko) Chrome/87.0.4280.88 Safari/537.36",WebKit,Chrome,87.0.4280.88,Windows,6.3
1,1,"""",html-keyboard-response,76,229839,0.0-6.0-4.0-0.0,A34XCQJG52CD3E,28.886000000000003,531,1,531,2,true,"""","""","""","""","""","""","""","""",6704.394999993383,"<p style='font-size: 28px;'>That was easy, right?</p>                <p style='font-size: 28px;'>Now let's have another practice. This time it will be a bit more difficult.</p>                <p style='font-size: 24px;'><i>Press the space bar to continue</i></p>","""",32,"""","""","""","""","""","""","""","""","""","""","""","""","""","""","""","""","""","""","""","2021-01-02 18:08:50",63.75.250.40,"Mozilla/5.0 (Windows NT 6.3; WOW64) AppleWebKit/537.36 (KHTML, like Gecko) Chrome/87.0.4280.88 Safari/537.36",WebKit,Chrome,87.0.4280.88,Windows,6.3
1,1,"""",animation,77,243885,0.0-6.0-5.0,A34XCQJG52CD3E,28.886000000000003,531,1,531,2,true,"""","""","""","""","""","""","[{""stimulus"":""img/demo2_absent.jpg"",""time"":322.95499999599997},{""stimulus"":""blank"",""time"":566.2799999990966},{""stimulus"":""img/demo2_absent.jpg"",""time"":642.3300000024028},{""stimulus"":""blank"",""time"":883.719999997993},{""stimulus"":""img/demo2_present.jpg"",""time"":961.8000000045868},{""stimulus"":""blank"",""time"":1202.8649999992922},{""stimulus"":""img/demo2_present.jpg"",""time"":1281.909999990603},{""stimulus"":""blank"",""time"":1523.2099999993807},{""stimulus"":""img/demo2_absent.jpg"",""time"":1602.2899999952642},{""stimulus"":""blank"",""time"":1843.4699999925215},{""stimulus"":""img/demo2_absent.jpg"",""time"":1922.5049999949988},{""stimulus"":""blank"",""time"":2163.830000004964},{""stimulus"":""img/demo2_present.jpg"",""time"":2241.920000000391},{""stimulus"":""blank"",""time"":2483.185000004596},{""stimulus"":""img/demo2_present.jpg"",""time"":2562.229999995907},{""stimulus"":""blank"",""time"":2803.459999995539},{""stimulus"":""img/demo2_absent.jpg"",""time"":2881.500000003143},{""stimulus"":""blank"",""time"":3122.849999999744},{""stimulus"":""img/demo2_absent.jpg"",""time"":3201.744999998482},{""stimulus"":""blank"",""time"":3443.025000000489},{""stimulus"":""img/demo2_present.jpg"",""time"":3522.0200000039767},{""stimulus"":""blank"",""time"":3763.3700000005774},{""stimulus"":""img/demo2_present.jpg"",""time"":3841.6049999941606},{""stimulus"":""blank"",""time"":4082.7399999980116},{""stimulus"":""img/demo2_absent.jpg"",""time"":4162.750000003143},{""stimulus"":""blank"",""time"":4404.114999997546},{""stimulus"":""img/demo2_absent.jpg"",""time"":4482.349999991129},{""stimulus"":""blank"",""time"":4724.379999999655},{""stimulus"":""img/demo2_present.jpg"",""time"":4802.360000001499},{""stimulus"":""blank"",""time"":5044.735000003129},{""stimulus"":""img/demo2_present.jpg"",""time"":5121.870000002673},{""stimulus"":""blank"",""time"":5363.174999991315},{""stimulus"":""img/demo2_absent.jpg"",""time"":5442.259999996168},{""stimulus"":""blank"",""time"":5683.319999996456},{""stimulus"":""img/demo2_absent.jpg"",""time"":5761.404999997467},{""stimulus"":""blank"",""time"":6002.794999993057},{""stimulus"":""img/demo2_present.jpg"",""time"":6082.020000001648},{""stimulus"":""blank"",""time"":6323.004999998375},{""stimulus"":""img/demo2_present.jpg"",""time"":6402.210000000196},{""stimulus"":""blank"",""time"":6644.270000004326},{""stimulus"":""img/demo2_absent.jpg"",""time"":6721.795000004931},{""stimulus"":""blank"",""time"":6962.619999991148},{""stimulus"":""img/demo2_absent.jpg"",""time"":7041.719999993802},{""stimulus"":""blank"",""time"":7282.989999992424},{""stimulus"":""img/demo2_present.jpg"",""time"":7362.110000001849},{""stimulus"":""blank"",""time"":7603.254999994533},{""stimulus"":""img/demo2_present.jpg"",""time"":7682.619999992312},{""stimulus"":""blank"",""time"":7923.630000004778},{""stimulus"":""img/demo2_absent.jpg"",""time"":8002.345000000787},{""stimulus"":""blank"",""time"":8245.739999998477},{""stimulus"":""img/demo2_absent.jpg"",""time"":8322.144999998272},{""stimulus"":""blank"",""time"":8563.28499999654},{""stimulus"":""img/demo2_present.jpg"",""time"":8641.21499999601},{""stimulus"":""blank"",""time"":8882.509999995818},{""stimulus"":""img/demo2_present.jpg"",""time"":8961.800000004587},{""stimulus"":""blank"",""time"":9202.969999998459},{""stimulus"":""img/demo2_absent.jpg"",""time"":9282.015000004321},{""stimulus"":""blank"",""time"":9523.14999999362},{""stimulus"":""img/demo2_absent.jpg"",""time"":9602.429999999003},{""stimulus"":""blank"",""time"":9843.485000004875},{""stimulus"":""img/demo2_present.jpg"",""time"":9922.59999999078},{""stimulus"":""blank"",""time"":10163.805000003777},{""stimulus"":""img/demo2_present.jpg"",""time"":10241.80499999784},{""stimulus"":""blank"",""time"":10483.12000000442},{""stimulus"":""img/demo2_absent.jpg"",""time"":10562.330000000657},{""stimulus"":""blank"",""time"":10804.615000000922},{""stimulus"":""img/demo2_absent.jpg"",""time"":10881.494999994175},{""stimulus"":""blank"",""time"":11122.774999996182},{""stimulus"":""img/demo2_present.jpg"",""time"":11201.829999990878},{""stimulus"":""blank"",""time"":11443.07999999728},{""stimulus"":""img/demo2_present.jpg"",""time"":11522.19000000332},{""stimulus"":""blank"",""time"":11764.385000002221},{""stimulus"":""img/demo2_absent.jpg"",""time"":11842.535000003409},{""stimulus"":""blank"",""time"":12083.774999991874},{""stimulus"":""img/demo2_absent.jpg"",""time"":12161.999999996624},{""stimulus"":""blank"",""time"":12404.999999998836},{""stimulus"":""img/demo2_present.jpg"",""time"":12482.179999991786},{""stimulus"":""blank"",""time"":12724.394999997457},{""stimulus"":""img/demo2_present.jpg"",""time"":12802.524999991874},{""stimulus"":""blank"",""time"":13043.724999995902},{""stimulus"":""img/demo2_absent.jpg"",""time"":13121.824999994715},{""stimulus"":""blank"",""time"":13363.044999990962},{""stimulus"":""img/demo2_absent.jpg"",""time"":13442.599999994854},{""stimulus"":""blank"",""time"":13684.370000002673},{""stimulus"":""img/demo2_present.jpg"",""time"":13761.91000000108},{""stimulus"":""blank"",""time"":14004.690000001574}]","[{""key_press"":32,""rt"":14043.324999991455,""stimulus"":""blank""}]",14043.37499999383,2,o,"""","""","""","""","""","""",true,"""","""","""","""","""","""","""","""","""","""","""","""","""","2021-01-02 18:08:50",63.75.250.40,"Mozilla/5.0 (Windows NT 6.3; WOW64) AppleWebKit/537.36 (KHTML, like Gecko) Chrome/87.0.4280.88 Safari/537.36",WebKit,Chrome,87.0.4280.88,Windows,6.3
1,1,"""",image-keyboard-response,78,258495,0.0-6.0-6.0,A34XCQJG52CD3E,28.886000000000003,531,1,531,2,true,"""","""","""","""","""","""","""","""",14602.520000000368,"detection grids/demo2.jpg","""",32,"""","""","""","""","""","""","""","""","""","""","""","""","""","""","""","""","""","""","""","2021-01-02 18:08:50",63.75.250.40,"Mozilla/5.0 (Windows NT 6.3; WOW64) AppleWebKit/537.36 (KHTML, like Gecko) Chrome/87.0.4280.88 Safari/537.36",WebKit,Chrome,87.0.4280.88,Windows,6.3
1,1,"""",image-button-response,79,263296,0.0-6.0-7.0,A34XCQJG52CD3E,28.886000000000003,531,1,531,2,true,"""","""","""","""","""","""","""","""",4798.5049999988405,"detection grids/demo2.jpg","""","""","""","""","""","""","""",true,"""","""","""","""","""","""","""","""",1,"""","""","""","""","2021-01-02 18:08:50",63.75.250.40,"Mozilla/5.0 (Windows NT 6.3; WOW64) AppleWebKit/537.36 (KHTML, like Gecko) Chrome/87.0.4280.88 Safari/537.36",WebKit,Chrome,87.0.4280.88,Windows,6.3
1,1,"""",image-button-response,80,267036,0.0-6.0-8.0,A34XCQJG52CD3E,28.886000000000003,531,1,531,2,true,"""","""","""","""","""","""","""","""",3734.309999999823,"detection grids/demo2.jpg","""","""","""","""","""","""","""",true,"""","""","""","""","""","""","""","""",1,"""","""","""","""","2021-01-02 18:08:50",63.75.250.40,"Mozilla/5.0 (Windows NT 6.3; WOW64) AppleWebKit/537.36 (KHTML, like Gecko) Chrome/87.0.4280.88 Safari/537.36",WebKit,Chrome,87.0.4280.88,Windows,6.3
1,1,"""",html-keyboard-response,81,269419,0.0-6.0-9.0-0.0,A34XCQJG52CD3E,28.886000000000003,531,1,531,2,true,"""","""","""","""","""","""","""","""",2381.7700000072364,"<p style='font-size: 28px;'>Great! You are now ready to continue to the task.</p>                <p style='font-size: 28px;'>You will now be shown a series of similar trials one after another.</p>                <p style='font-size: 28px;'>It will take about 10-15 minutes until the next break.</p>                <p style='font-size: 28px;'>We ask you to keep your finger over the space bar and stay concentrated the whole time.</p>                <p style='font-size: 24px;'><i>Press the space bar when ready</i></p>","""",32,"""","""","""","""","""","""","""","""","""","""","""","""","""","""","""","""","""","""","""","2021-01-02 18:08:50",63.75.250.40,"Mozilla/5.0 (Windows NT 6.3; WOW64) AppleWebKit/537.36 (KHTML, like Gecko) Chrome/87.0.4280.88 Safari/537.36",WebKit,Chrome,87.0.4280.88,Windows,6.3
1,1,"""",call-function,82,269428,0.0-7.0-0.0,A34XCQJG52CD3E,28.886000000000003,531,1,531,2,true,"[object Object]","""","""","""","""","""","""","""","""","""","""","""","""","""","""","""","""","""","""","""","""","""","""","""","""","""","""","""","""","""","""","2021-01-02 18:08:50",63.75.250.40,"Mozilla/5.0 (Windows NT 6.3; WOW64) AppleWebKit/537.36 (KHTML, like Gecko) Chrome/87.0.4280.88 Safari/537.36",WebKit,Chrome,87.0.4280.88,Windows,6.3
1,1,"""",html-keyboard-response,83,269429,0.0-7.0-1.0,A34XCQJG52CD3E,28.886000000000003,531,1,531,2,true,"[object Object]","""","""","""","""","""","""","""","""","""","""","""","""","""","""","""","""","""","""","""","""","""","""","""","""","""","""","""","""","""","""","2021-01-02 18:08:50",63.75.250.40,"Mozilla/5.0 (Windows NT 6.3; WOW64) AppleWebKit/537.36 (KHTML, like Gecko) Chrome/87.0.4280.88 Safari/537.36",WebKit,Chrome,87.0.4280.88,Windows,6.3
1,1,"""",html-keyboard-response,84,270431,0.0-7.0-2.0,A34XCQJG52CD3E,28.886000000000003,531,1,531,2,true,"""","""","""","""","""","""","""","""",null,"<p style=""font-size: 48px;"">ready?</p>","""",null,"""","""","""","""","""","""","""","""","""","""","""","""","""","""","""","""","""","""","""","2021-01-02 18:08:50",63.75.250.40,"Mozilla/5.0 (Windows NT 6.3; WOW64) AppleWebKit/537.36 (KHTML, like Gecko) Chrome/87.0.4280.88 Safari/537.36",WebKit,Chrome,87.0.4280.88,Windows,6.3
1,1,"""",html-keyboard-response,85,271433,0.0-7.0-3.0,A34XCQJG52CD3E,28.886000000000003,531,1,531,2,true,"""","""","""","""","""","""","""","""",null,"<p style=""font-size: 48px;"">ready?</p>","""",null,"""","""","""","""","""","""","""","""","""","""","""","""","""","""","""","""","""","""","""","2021-01-02 18:08:50",63.75.250.40,"Mozilla/5.0 (Windows NT 6.3; WOW64) AppleWebKit/537.36 (KHTML, like Gecko) Chrome/87.0.4280.88 Safari/537.36",WebKit,Chrome,87.0.4280.88,Windows,6.3
1,1,"""",html-keyboard-response,86,272435,0.0-7.0-4.0,A34XCQJG52CD3E,28.886000000000003,531,1,531,2,true,"""","""","""","""","""","""","""","""",null,"<p style=""font-size: 48px;"">ready?</p>","""",null,"""","""","""","""","""","""","""","""","""","""","""","""","""","""","""","""","""","""","""","2021-01-02 18:08:50",63.75.250.40,"Mozilla/5.0 (Windows NT 6.3; WOW64) AppleWebKit/537.36 (KHTML, like Gecko) Chrome/87.0.4280.88 Safari/537.36",WebKit,Chrome,87.0.4280.88,Windows,6.3
1,1,true,animation,87,278670,0.0-7.0-5.0,A34XCQJG52CD3E,28.886000000000003,531,1,531,2,true,"""","""","""","""","""","""","[{""stimulus"":""img/01_R_filler_absent.jpg"",""time"":320.96999998611864},{""stimulus"":""blank"",""time"":563.1499999872176},{""stimulus"":""img/01_R_filler_absent.jpg"",""time"":641.5749999869149},{""stimulus"":""blank"",""time"":881.9299999886425},{""stimulus"":""img/01_R_filler_present.jpg"",""time"":1000.6799999973737},{""stimulus"":""blank"",""time"":1241.425000000163},{""stimulus"":""img/01_R_filler_present.jpg"",""time"":1281.0649999883026},{""stimulus"":""blank"",""time"":1521.5699999971548},{""stimulus"":""img/01_R_filler_absent.jpg"",""time"":1601.5299999999115},{""stimulus"":""blank"",""time"":1841.8849999870872},{""stimulus"":""img/01_R_filler_absent.jpg"",""time"":1921.8199999886565},{""stimulus"":""blank"",""time"":2162.269999986165},{""stimulus"":""img/01_R_filler_present.jpg"",""time"":2241.05499999132},{""stimulus"":""blank"",""time"":2481.579999992391},{""stimulus"":""img/01_R_filler_present.jpg"",""time"":2561.2849999888567},{""stimulus"":""blank"",""time"":2801.88499999349},{""stimulus"":""img/01_R_filler_absent.jpg"",""time"":2881.694999989122},{""stimulus"":""blank"",""time"":3122.219999990193},{""stimulus"":""img/01_R_filler_absent.jpg"",""time"":3200.9699999907752},{""stimulus"":""blank"",""time"":3441.5699999954086},{""stimulus"":""img/01_R_filler_present.jpg"",""time"":3521.3949999888428},{""stimulus"":""blank"",""time"":3762.829999992391},{""stimulus"":""img/01_R_filler_present.jpg"",""time"":3841.599999999744},{""stimulus"":""blank"",""time"":4082.4349999893457},{""stimulus"":""img/01_R_filler_absent.jpg"",""time"":4160.889999999199},{""stimulus"":""blank"",""time"":4401.539999991655},{""stimulus"":""img/01_R_filler_absent.jpg"",""time"":4482.1849999862025},{""stimulus"":""blank"",""time"":4723.794999998063},{""stimulus"":""img/01_R_filler_present.jpg"",""time"":4801.33499999647},{""stimulus"":""blank"",""time"":5042.089999988093},{""stimulus"":""img/01_R_filler_present.jpg"",""time"":5120.754999996279},{""stimulus"":""blank"",""time"":5361.414999992121},{""stimulus"":""img/01_R_filler_absent.jpg"",""time"":5441.034999996191},{""stimulus"":""blank"",""time"":5681.744999994407},{""stimulus"":""img/01_R_filler_absent.jpg"",""time"":5762.844999990193},{""stimulus"":""blank"",""time"":6004.719999997178},{""stimulus"":""img/01_R_filler_present.jpg"",""time"":6081.589999987045}]","[{""key_press"":32,""rt"":6227.505000002566,""stimulus"":""img/01_R_filler_present.jpg""}]",6227.5749999971595,01,R,"""","""","""","""","""","""","""","""","""","""","""","""","""","""","""","""","2,1",1,"""","""","2021-01-02 18:08:50",63.75.250.40,"Mozilla/5.0 (Windows NT 6.3; WOW64) AppleWebKit/537.36 (KHTML, like Gecko) Chrome/87.0.4280.88 Safari/537.36",WebKit,Chrome,87.0.4280.88,Windows,6.3
1,1,"""",image-button-response,88,282261,0.0-7.0-6.0,A34XCQJG52CD3E,28.886000000000003,531,1,531,2,true,"""","""","""","""","""","""","""","""",3587.279999992461,"detection grids/01R.jpg","""","""","""","""","""","""","""","""","""","""","""","""","""","""","""","""",2,"""","""",true,"""","2021-01-02 18:08:50",63.75.250.40,"Mozilla/5.0 (Windows NT 6.3; WOW64) AppleWebKit/537.36 (KHTML, like Gecko) Chrome/87.0.4280.88 Safari/537.36",WebKit,Chrome,87.0.4280.88,Windows,6.3
1,1,"""",image-button-response,89,283996,0.0-7.0-7.0,A34XCQJG52CD3E,28.886000000000003,531,1,531,2,true,"""","""","""","""","""","""","""","""",1726.135000004433,"detection grids/01R.jpg","""","""","""","""","""","""","""","""","""","""","""","""","""","""","""","""",1,"""","""",true,"""","2021-01-02 18:08:50",63.75.250.40,"Mozilla/5.0 (Windows NT 6.3; WOW64) AppleWebKit/537.36 (KHTML, like Gecko) Chrome/87.0.4280.88 Safari/537.36",WebKit,Chrome,87.0.4280.88,Windows,6.3
1,1,"""",call-function,90,284000,0.0-7.0-0.1,A34XCQJG52CD3E,28.886000000000003,531,1,531,2,true,"[object Object]","""","""","""","""","""","""","""","""","""","""","""","""","""","""","""","""","""","""","""","""","""","""","""","""","""","""","""","""","""","""","2021-01-02 18:08:50",63.75.250.40,"Mozilla/5.0 (Windows NT 6.3; WOW64) AppleWebKit/537.36 (KHTML, like Gecko) Chrome/87.0.4280.88 Safari/537.36",WebKit,Chrome,87.0.4280.88,Windows,6.3
1,1,"""",html-keyboard-response,91,284001,0.0-7.0-1.1,A34XCQJG52CD3E,28.886000000000003,531,1,531,2,true,"[object Object]","""","""","""","""","""","""","""","""","""","""","""","""","""","""","""","""","""","""","""","""","""","""","""","""","""","""","""","""","""","""","2021-01-02 18:08:50",63.75.250.40,"Mozilla/5.0 (Windows NT 6.3; WOW64) AppleWebKit/537.36 (KHTML, like Gecko) Chrome/87.0.4280.88 Safari/537.36",WebKit,Chrome,87.0.4280.88,Windows,6.3
1,1,"""",html-keyboard-response,92,285003,0.0-7.0-2.1,A34XCQJG52CD3E,28.886000000000003,531,1,531,2,true,"""","""","""","""","""","""","""","""",null,"<p style=""font-size: 48px;"">ready?</p>","""",null,"""","""","""","""","""","""","""","""","""","""","""","""","""","""","""","""","""","""","""","2021-01-02 18:08:50",63.75.250.40,"Mozilla/5.0 (Windows NT 6.3; WOW64) AppleWebKit/537.36 (KHTML, like Gecko) Chrome/87.0.4280.88 Safari/537.36",WebKit,Chrome,87.0.4280.88,Windows,6.3
1,1,"""",html-keyboard-response,93,286006,0.0-7.0-3.1,A34XCQJG52CD3E,28.886000000000003,531,1,531,2,true,"""","""","""","""","""","""","""","""",null,"<p style=""font-size: 48px;"">ready?</p>","""",null,"""","""","""","""","""","""","""","""","""","""","""","""","""","""","""","""","""","""","""","2021-01-02 18:08:50",63.75.250.40,"Mozilla/5.0 (Windows NT 6.3; WOW64) AppleWebKit/537.36 (KHTML, like Gecko) Chrome/87.0.4280.88 Safari/537.36",WebKit,Chrome,87.0.4280.88,Windows,6.3
1,1,"""",html-keyboard-response,94,287019,0.0-7.0-4.1,A34XCQJG52CD3E,28.886000000000003,531,1,531,2,true,"""","""","""","""","""","""","""","""",null,"<p style=""font-size: 48px;"">ready?</p>","""",null,"""","""","""","""","""","""","""","""","""","""","""","""","""","""","""","""","""","""","""","2021-01-02 18:08:50",63.75.250.40,"Mozilla/5.0 (Windows NT 6.3; WOW64) AppleWebKit/537.36 (KHTML, like Gecko) Chrome/87.0.4280.88 Safari/537.36",WebKit,Chrome,87.0.4280.88,Windows,6.3
1,1,true,animation,95,294125,0.0-7.0-5.1,A34XCQJG52CD3E,28.886000000000003,531,1,531,2,true,"""","""","""","""","""","""","[{""stimulus"":""img/016_R_filler_absent.jpg"",""time"":322.2549999918556},{""stimulus"":""blank"",""time"":562.5449999934062},{""stimulus"":""img/016_R_filler_absent.jpg"",""time"":642.4149999947986},{""stimulus"":""blank"",""time"":884.5299999957206},{""stimulus"":""img/016_R_filler_present.jpg"",""time"":961.6749999986496},{""stimulus"":""blank"",""time"":1202.1249999961583},{""stimulus"":""img/016_R_filler_present.jpg"",""time"":1281.9000000017695},{""stimulus"":""blank"",""time"":1522.499999991851},{""stimulus"":""img/016_R_filler_absent.jpg"",""time"":1601.1900000012247},{""stimulus"":""blank"",""time"":1842.7950000041164},{""stimulus"":""img/016_R_filler_absent.jpg"",""time"":1921.5149999945424},{""stimulus"":""blank"",""time"":2162.2300000017276},{""stimulus"":""img/016_R_filler_present.jpg"",""time"":2241.93999999261},{""stimulus"":""blank"",""time"":2483.414999995148},{""stimulus"":""img/016_R_filler_present.jpg"",""time"":2562.049999993178},{""stimulus"":""blank"",""time"":2802.9999999998836},{""stimulus"":""img/016_R_filler_absent.jpg"",""time"":2881.714999995893},{""stimulus"":""blank"",""time"":3122.285000004922},{""stimulus"":""img/016_R_filler_absent.jpg"",""time"":3201.73000000068},{""stimulus"":""blank"",""time"":3442.4199999921257},{""stimulus"":""img/016_R_filler_present.jpg"",""time"":3521.179999996093},{""stimulus"":""blank"",""time"":3761.725000003935},{""stimulus"":""img/016_R_filler_present.jpg"",""time"":3841.4800000027753},{""stimulus"":""blank"",""time"":4082.01499999268},{""stimulus"":""img/016_R_filler_absent.jpg"",""time"":4162.924999996903},{""stimulus"":""blank"",""time"":4403.349999993225},{""stimulus"":""img/016_R_filler_absent.jpg"",""time"":4482.239999997546},{""stimulus"":""blank"",""time"":4722.630000003846},{""stimulus"":""img/016_R_filler_present.jpg"",""time"":4801.510000004782},{""stimulus"":""blank"",""time"":5041.97999999451},{""stimulus"":""img/016_R_filler_present.jpg"",""time"":5122.019999995246},{""stimulus"":""blank"",""time"":5362.324999994598},{""stimulus"":""img/016_R_filler_absent.jpg"",""time"":5442.104999994626},{""stimulus"":""blank"",""time"":5682.759999996051},{""stimulus"":""img/016_R_filler_absent.jpg"",""time"":5761.454999999842},{""stimulus"":""blank"",""time"":6001.974999991944},{""stimulus"":""img/016_R_filler_present.jpg"",""time"":6081.754999991972},{""stimulus"":""blank"",""time"":6322.329999995418},{""stimulus"":""img/016_R_filler_present.jpg"",""time"":6401.104999997187},{""stimulus"":""blank"",""time"":6642.269999996643},{""stimulus"":""img/016_R_filler_absent.jpg"",""time"":6721.445000002859},{""stimulus"":""blank"",""time"":6962.0299999951385},{""stimulus"":""img/016_R_filler_absent.jpg"",""time"":7042.644999994081}]","[{""key_press"":32,""rt"":7104.799999986426,""stimulus"":""img/016_R_filler_absent.jpg""}]",7104.859999992186,016,R,"""","""","""","""","""","""","""","""","""","""","""","""","""","""","""","""","3,2",2,"""","""","2021-01-02 18:08:50",63.75.250.40,"Mozilla/5.0 (Windows NT 6.3; WOW64) AppleWebKit/537.36 (KHTML, like Gecko) Chrome/87.0.4280.88 Safari/537.36",WebKit,Chrome,87.0.4280.88,Windows,6.3
1,1,"""",image-button-response,96,297416,0.0-7.0-6.1,A34XCQJG52CD3E,28.886000000000003,531,1,531,2,true,"""","""","""","""","""","""","""","""",3282.1450000046752,"detection grids/016R.jpg","""","""","""","""","""","""","""","""","""","""","""","""","""","""","""","""",3,"""","""",true,"""","2021-01-02 18:08:50",63.75.250.40,"Mozilla/5.0 (Windows NT 6.3; WOW64) AppleWebKit/537.36 (KHTML, like Gecko) Chrome/87.0.4280.88 Safari/537.36",WebKit,Chrome,87.0.4280.88,Windows,6.3
1,1,"""",image-button-response,97,301306,0.0-7.0-7.1,A34XCQJG52CD3E,28.886000000000003,531,1,531,2,true,"""","""","""","""","""","""","""","""",3887.3400000011316,"detection grids/016R.jpg","""","""","""","""","""","""","""","""","""","""","""","""","""","""","""","""",2,"""","""",true,"""","2021-01-02 18:08:50",63.75.250.40,"Mozilla/5.0 (Windows NT 6.3; WOW64) AppleWebKit/537.36 (KHTML, like Gecko) Chrome/87.0.4280.88 Safari/537.36",WebKit,Chrome,87.0.4280.88,Windows,6.3
1,1,"""",call-function,98,301315,0.0-7.0-0.2,A34XCQJG52CD3E,28.886000000000003,531,1,531,2,true,"[object Object]","""","""","""","""","""","""","""","""","""","""","""","""","""","""","""","""","""","""","""","""","""","""","""","""","""","""","""","""","""","""","2021-01-02 18:08:50",63.75.250.40,"Mozilla/5.0 (Windows NT 6.3; WOW64) AppleWebKit/537.36 (KHTML, like Gecko) Chrome/87.0.4280.88 Safari/537.36",WebKit,Chrome,87.0.4280.88,Windows,6.3
1,1,"""",html-keyboard-response,99,301317,0.0-7.0-1.2,A34XCQJG52CD3E,28.886000000000003,531,1,531,2,true,"[object Object]","""","""","""","""","""","""","""","""","""","""","""","""","""","""","""","""","""","""","""","""","""","""","""","""","""","""","""","""","""","""","2021-01-02 18:08:50",63.75.250.40,"Mozilla/5.0 (Windows NT 6.3; WOW64) AppleWebKit/537.36 (KHTML, like Gecko) Chrome/87.0.4280.88 Safari/537.36",WebKit,Chrome,87.0.4280.88,Windows,6.3
1,1,"""",html-keyboard-response,100,302319,0.0-7.0-2.2,A34XCQJG52CD3E,28.886000000000003,531,1,531,2,true,"""","""","""","""","""","""","""","""",null,"<p style=""font-size: 48px;"">ready?</p>","""",null,"""","""","""","""","""","""","""","""","""","""","""","""","""","""","""","""","""","""","""","2021-01-02 18:08:50",63.75.250.40,"Mozilla/5.0 (Windows NT 6.3; WOW64) AppleWebKit/537.36 (KHTML, like Gecko) Chrome/87.0.4280.88 Safari/537.36",WebKit,Chrome,87.0.4280.88,Windows,6.3
1,1,"""",html-keyboard-response,101,303321,0.0-7.0-3.2,A34XCQJG52CD3E,28.886000000000003,531,1,531,2,true,"""","""","""","""","""","""","""","""",null,"<p style=""font-size: 48px;"">ready?</p>","""",null,"""","""","""","""","""","""","""","""","""","""","""","""","""","""","""","""","""","""","""","2021-01-02 18:08:50",63.75.250.40,"Mozilla/5.0 (Windows NT 6.3; WOW64) AppleWebKit/537.36 (KHTML, like Gecko) Chrome/87.0.4280.88 Safari/537.36",WebKit,Chrome,87.0.4280.88,Windows,6.3
1,1,"""",html-keyboard-response,102,304323,0.0-7.0-4.2,A34XCQJG52CD3E,28.886000000000003,531,1,531,2,true,"""","""","""","""","""","""","""","""",null,"<p style=""font-size: 48px;"">ready?</p>","""",null,"""","""","""","""","""","""","""","""","""","""","""","""","""","""","""","""","""","""","""","2021-01-02 18:08:50",63.75.250.40,"Mozilla/5.0 (Windows NT 6.3; WOW64) AppleWebKit/537.36 (KHTML, like Gecko) Chrome/87.0.4280.88 Safari/537.36",WebKit,Chrome,87.0.4280.88,Windows,6.3
1,1,true,animation,103,321100,0.0-7.0-5.2,A34XCQJG52CD3E,28.886000000000003,531,1,531,2,true,"""","""","""","""","""","""","[{""stimulus"":""img/06_R_filler_absent.jpg"",""time"":322.35499999660533},{""stimulus"":""blank"",""time"":562.7850000018952},{""stimulus"":""img/06_R_filler_absent.jpg"",""time"":641.9349999923725},{""stimulus"":""blank"",""time"":882.2050000017043},{""stimulus"":""img/06_R_filler_present.jpg"",""time"":961.6149999928894},{""stimulus"":""blank"",""time"":1202.51499999722},{""stimulus"":""img/06_R_filler_present.jpg"",""time"":1281.6699999966659},{""stimulus"":""blank"",""time"":1522.8399999905378},{""stimulus"":""img/06_R_filler_absent.jpg"",""time"":1601.9499999965774},{""stimulus"":""blank"",""time"":1842.0999999943888},{""stimulus"":""img/06_R_filler_absent.jpg"",""time"":1922.2349999909056},{""stimulus"":""blank"",""time"":2162.4899999878835},{""stimulus"":""img/06_R_filler_present.jpg"",""time"":2242.4749999918276},{""stimulus"":""blank"",""time"":2482.7899999945657},{""stimulus"":""img/06_R_filler_present.jpg"",""time"":2561.824999997043},{""stimulus"":""blank"",""time"":2802.064999996219},{""stimulus"":""img/06_R_filler_absent.jpg"",""time"":2882.0750000013504},{""stimulus"":""blank"",""time"":3123.3999999967637},{""stimulus"":""img/06_R_filler_absent.jpg"",""time"":3201.45500000217},{""stimulus"":""blank"",""time"":3442.6799999928335},{""stimulus"":""img/06_R_filler_present.jpg"",""time"":3521.6849999997066},{""stimulus"":""blank"",""time"":3762.059999993653},{""stimulus"":""img/06_R_filler_present.jpg"",""time"":3842.109999997774},{""stimulus"":""blank"",""time"":4082.3899999959394},{""stimulus"":""img/06_R_filler_absent.jpg"",""time"":4161.254999999073},{""stimulus"":""blank"",""time"":4401.724999988801},{""stimulus"":""img/06_R_filler_absent.jpg"",""time"":4481.8949999898905},{""stimulus"":""blank"",""time"":4722.085000001243},{""stimulus"":""img/06_R_filler_present.jpg"",""time"":4802.044999989448},{""stimulus"":""blank"",""time"":5042.300000000978},{""stimulus"":""img/06_R_filler_present.jpg"",""time"":5122.699999992619},{""stimulus"":""blank"",""time"":5363.635000001523},{""stimulus"":""img/06_R_filler_absent.jpg"",""time"":5441.66499999119},{""stimulus"":""blank"",""time"":5682.019999992917},{""stimulus"":""img/06_R_filler_absent.jpg"",""time"":5762.275000000955},{""stimulus"":""blank"",""time"":6003.394999992452},{""stimulus"":""img/06_R_filler_present.jpg"",""time"":6081.2499999883585},{""stimulus"":""blank"",""time"":6321.574999994482},{""stimulus"":""img/06_R_filler_present.jpg"",""time"":6401.659999988624},{""stimulus"":""blank"",""time"":6641.944999995758},{""stimulus"":""img/06_R_filler_absent.jpg"",""time"":6721.864999999525},{""stimulus"":""blank"",""time"":6963.289999999688},{""stimulus"":""img/06_R_filler_absent.jpg"",""time"":7042.379999998957},{""stimulus"":""blank"",""time"":7282.664999991539},{""stimulus"":""img/06_R_filler_present.jpg"",""time"":7362.569999997504},{""stimulus"":""blank"",""time"":7602.794999998878},{""stimulus"":""img/06_R_filler_present.jpg"",""time"":7681.834999995772},{""stimulus"":""blank"",""time"":7922.225000002072},{""stimulus"":""img/06_R_filler_absent.jpg"",""time"":8002.150000000256},{""stimulus"":""blank"",""time"":8242.545000000973},{""stimulus"":""img/06_R_filler_absent.jpg"",""time"":8321.87499999418},{""stimulus"":""blank"",""time"":8562.785000001895},{""stimulus"":""img/06_R_filler_present.jpg"",""time"":8642.009999995935},{""stimulus"":""blank"",""time"":8883.07499999064},{""stimulus"":""img/06_R_filler_present.jpg"",""time"":8961.194999996223},{""stimulus"":""blank"",""time"":9201.449999993201},{""stimulus"":""img/06_R_filler_absent.jpg"",""time"":9281.634999992093},{""stimulus"":""blank"",""time"":9523.724999991828},{""stimulus"":""img/06_R_filler_absent.jpg"",""time"":9602.829999988899},{""stimulus"":""blank"",""time"":9843.09999999823},{""stimulus"":""img/06_R_filler_present.jpg"",""time"":9922.219999993104},{""stimulus"":""blank"",""time"":10162.544999999227},{""stimulus"":""img/06_R_filler_present.jpg"",""time"":10242.23499999789},{""stimulus"":""blank"",""time"":10482.754999989993},{""stimulus"":""img/06_R_filler_absent.jpg"",""time"":10561.78999999247},{""stimulus"":""blank"",""time"":10802.125000001979},{""stimulus"":""img/06_R_filler_absent.jpg"",""time"":10882.184999994934},{""stimulus"":""blank"",""time"":11122.835000001942},{""stimulus"":""img/06_R_filler_present.jpg"",""time"":11201.404999999795},{""stimulus"":""blank"",""time"":11442.739999998594},{""stimulus"":""img/06_R_filler_present.jpg"",""time"":11521.764999997686},{""stimulus"":""blank"",""time"":11762.139999991632},{""stimulus"":""img/06_R_filler_absent.jpg"",""time"":11842.274999988149},{""stimulus"":""blank"",""time"":12084.384999994654},{""stimulus"":""img/06_R_filler_absent.jpg"",""time"":12161.549999989802},{""stimulus"":""blank"",""time"":12402.714999989257},{""stimulus"":""img/06_R_filler_present.jpg"",""time"":12481.564999994589},{""stimulus"":""blank"",""time"":12722.060000000056},{""stimulus"":""img/06_R_filler_present.jpg"",""time"":12802.094999991823},{""stimulus"":""blank"",""time"":13042.27499999979},{""stimulus"":""img/06_R_filler_absent.jpg"",""time"":13122.689999989234},{""stimulus"":""blank"",""time"":13363.959999987856},{""stimulus"":""img/06_R_filler_absent.jpg"",""time"":13441.789999997127},{""stimulus"":""blank"",""time"":13683.989999990445},{""stimulus"":""img/06_R_filler_present.jpg"",""time"":13762.029999998049},{""stimulus"":""blank"",""time"":14002.345000000787},{""stimulus"":""img/06_R_filler_present.jpg"",""time"":14081.214999998338},{""stimulus"":""blank"",""time"":14322.534999999334},{""stimulus"":""img/06_R_filler_absent.jpg"",""time"":14403.144999989308},{""stimulus"":""blank"",""time"":14643.7900000019},{""stimulus"":""img/06_R_filler_absent.jpg"",""time"":14723.099999988335},{""stimulus"":""blank"",""time"":14964.289999988978},{""stimulus"":""img/06_R_filler_present.jpg"",""time"":15043.994999999995},{""stimulus"":""blank"",""time"":15285.019999995711},{""stimulus"":""img/06_R_filler_present.jpg"",""time"":15364.199999996345},{""stimulus"":""blank"",""time"":15605.035000000498},{""stimulus"":""img/06_R_filler_absent.jpg"",""time"":15681.944999989355},{""stimulus"":""blank"",""time"":15924.339999997756},{""stimulus"":""img/06_R_filler_absent.jpg"",""time"":16003.609999999753},{""stimulus"":""blank"",""time"":16245.404999994207},{""stimulus"":""img/06_R_filler_present.jpg"",""time"":16321.949999997742},{""stimulus"":""blank"",""time"":16563.799999988987},{""stimulus"":""img/06_R_filler_present.jpg"",""time"":16641.759999998612}]","[{""key_press"":32,""rt"":16771.470000006957,""stimulus"":""img/06_R_filler_present.jpg""}]",16771.554999999353,06,R,"""","""","""","""","""","""","""","""","""","""","""","""","""","""","""","""","3,2",3,"""","""","2021-01-02 18:08:50",63.75.250.40,"Mozilla/5.0 (Windows NT 6.3; WOW64) AppleWebKit/537.36 (KHTML, like Gecko) Chrome/87.0.4280.88 Safari/537.36",WebKit,Chrome,87.0.4280.88,Windows,6.3
1,1,"""",image-button-response,104,325036,0.0-7.0-6.2,A34XCQJG52CD3E,28.886000000000003,531,1,531,2,true,"""","""","""","""","""","""","""","""",3932.9500000021653,"detection grids/06R.jpg","""","""","""","""","""","""","""","""","""","""","""","""","""","""","""","""",3,"""","""",true,"""","2021-01-02 18:08:50",63.75.250.40,"Mozilla/5.0 (Windows NT 6.3; WOW64) AppleWebKit/537.36 (KHTML, like Gecko) Chrome/87.0.4280.88 Safari/537.36",WebKit,Chrome,87.0.4280.88,Windows,6.3
1,1,"""",image-button-response,105,326096,0.0-7.0-7.2,A34XCQJG52CD3E,28.886000000000003,531,1,531,2,true,"""","""","""","""","""","""","""","""",1051.8449999945005,"detection grids/06R.jpg","""","""","""","""","""","""","""","""","""","""","""","""","""","""","""","""",2,"""","""",true,"""","2021-01-02 18:08:50",63.75.250.40,"Mozilla/5.0 (Windows NT 6.3; WOW64) AppleWebKit/537.36 (KHTML, like Gecko) Chrome/87.0.4280.88 Safari/537.36",WebKit,Chrome,87.0.4280.88,Windows,6.3
1,1,"""",call-function,106,326099,0.0-7.0-0.3,A34XCQJG52CD3E,28.886000000000003,531,1,531,2,true,"[object Object]","""","""","""","""","""","""","""","""","""","""","""","""","""","""","""","""","""","""","""","""","""","""","""","""","""","""","""","""","""","""","2021-01-02 18:08:50",63.75.250.40,"Mozilla/5.0 (Windows NT 6.3; WOW64) AppleWebKit/537.36 (KHTML, like Gecko) Chrome/87.0.4280.88 Safari/537.36",WebKit,Chrome,87.0.4280.88,Windows,6.3
1,1,"""",html-keyboard-response,107,326101,0.0-7.0-1.3,A34XCQJG52CD3E,28.886000000000003,531,1,531,2,true,"[object Object]","""","""","""","""","""","""","""","""","""","""","""","""","""","""","""","""","""","""","""","""","""","""","""","""","""","""","""","""","""","""","2021-01-02 18:08:50",63.75.250.40,"Mozilla/5.0 (Windows NT 6.3; WOW64) AppleWebKit/537.36 (KHTML, like Gecko) Chrome/87.0.4280.88 Safari/537.36",WebKit,Chrome,87.0.4280.88,Windows,6.3
1,1,"""",html-keyboard-response,108,327102,0.0-7.0-2.3,A34XCQJG52CD3E,28.886000000000003,531,1,531,2,true,"""","""","""","""","""","""","""","""",null,"<p style=""font-size: 48px;"">ready?</p>","""",null,"""","""","""","""","""","""","""","""","""","""","""","""","""","""","""","""","""","""","""","2021-01-02 18:08:50",63.75.250.40,"Mozilla/5.0 (Windows NT 6.3; WOW64) AppleWebKit/537.36 (KHTML, like Gecko) Chrome/87.0.4280.88 Safari/537.36",WebKit,Chrome,87.0.4280.88,Windows,6.3
1,1,"""",html-keyboard-response,109,328105,0.0-7.0-3.3,A34XCQJG52CD3E,28.886000000000003,531,1,531,2,true,"""","""","""","""","""","""","""","""",null,"<p style=""font-size: 48px;"">ready?</p>","""",null,"""","""","""","""","""","""","""","""","""","""","""","""","""","""","""","""","""","""","""","2021-01-02 18:08:50",63.75.250.40,"Mozilla/5.0 (Windows NT 6.3; WOW64) AppleWebKit/537.36 (KHTML, like Gecko) Chrome/87.0.4280.88 Safari/537.36",WebKit,Chrome,87.0.4280.88,Windows,6.3
1,1,"""",html-keyboard-response,110,329113,0.0-7.0-4.3,A34XCQJG52CD3E,28.886000000000003,531,1,531,2,true,"""","""","""","""","""","""","""","""",null,"<p style=""font-size: 48px;"">ready?</p>","""",null,"""","""","""","""","""","""","""","""","""","""","""","""","""","""","""","""","""","""","""","2021-01-02 18:08:50",63.75.250.40,"Mozilla/5.0 (Windows NT 6.3; WOW64) AppleWebKit/537.36 (KHTML, like Gecko) Chrome/87.0.4280.88 Safari/537.36",WebKit,Chrome,87.0.4280.88,Windows,6.3
1,1,true,animation,111,336079,0.0-7.0-5.3,A34XCQJG52CD3E,28.886000000000003,531,1,531,2,true,"""","""","""","""","""","""","[{""stimulus"":""img/013_L_filler_absent.jpg"",""time"":321.57500000903383},{""stimulus"":""blank"",""time"":562.0850000123028},{""stimulus"":""img/013_L_filler_absent.jpg"",""time"":641.8800000101328},{""stimulus"":""blank"",""time"":882.4549999990268},{""stimulus"":""img/013_L_filler_present.jpg"",""time"":961.2650000053691},{""stimulus"":""blank"",""time"":1201.695000010659},{""stimulus"":""img/013_L_filler_present.jpg"",""time"":1281.490000008489},{""stimulus"":""blank"",""time"":1522.0550000085495},{""stimulus"":""img/013_L_filler_absent.jpg"",""time"":1602.230000004056},{""stimulus"":""blank"",""time"":1844.215000004624},{""stimulus"":""img/013_L_filler_absent.jpg"",""time"":1922.2550000122283},{""stimulus"":""blank"",""time"":2162.6350000005914},{""stimulus"":""img/013_L_filler_present.jpg"",""time"":2241.390000010142},{""stimulus"":""blank"",""time"":2481.9700000080047},{""stimulus"":""img/013_L_filler_present.jpg"",""time"":2562.6350000093225},{""stimulus"":""blank"",""time"":2803.1900000059977},{""stimulus"":""img/013_L_filler_absent.jpg"",""time"":2881.2200000102166},{""stimulus"":""blank"",""time"":3121.6850000055274},{""stimulus"":""img/013_L_filler_absent.jpg"",""time"":3201.3950000109617},{""stimulus"":""blank"",""time"":3442.8200000111246},{""stimulus"":""img/013_L_filler_present.jpg"",""time"":3522.0700000063516},{""stimulus"":""blank"",""time"":3764.11500001268},{""stimulus"":""img/013_L_filler_present.jpg"",""time"":3842.820000005304},{""stimulus"":""blank"",""time"":4083.5400000069058},{""stimulus"":""img/013_L_filler_absent.jpg"",""time"":4162.30500000529},{""stimulus"":""blank"",""time"":4402.815000008559},{""stimulus"":""img/013_L_filler_absent.jpg"",""time"":4481.769999998505},{""stimulus"":""blank"",""time"":4722.15000000142},{""stimulus"":""img/013_L_filler_present.jpg"",""time"":4801.890000002459},{""stimulus"":""blank"",""time"":5042.550000012852},{""stimulus"":""img/013_L_filler_present.jpg"",""time"":5121.275000012247},{""stimulus"":""blank"",""time"":5361.950000005891},{""stimulus"":""img/013_L_filler_absent.jpg"",""time"":5442.490000001271},{""stimulus"":""blank"",""time"":5684.325000009267},{""stimulus"":""img/013_L_filler_absent.jpg"",""time"":5762.07000001159},{""stimulus"":""blank"",""time"":6003.370000005816},{""stimulus"":""img/013_L_filler_present.jpg"",""time"":6081.275000004098},{""stimulus"":""blank"",""time"":6321.830000000773},{""stimulus"":""img/013_L_filler_present.jpg"",""time"":6401.57500001078},{""stimulus"":""blank"",""time"":6643.080000008922},{""stimulus"":""img/013_L_filler_absent.jpg"",""time"":6722.030000004452},{""stimulus"":""blank"",""time"":6962.435000008554}]","[{""key_press"":32,""rt"":6965.52499999234,""stimulus"":""blank""}]",6965.5950000014855,013,L,"""","""","""","""","""","""","""","""","""","""","""","""","""","""","""","""","0,1",4,"""","""","2021-01-02 18:08:50",63.75.250.40,"Mozilla/5.0 (Windows NT 6.3; WOW64) AppleWebKit/537.36 (KHTML, like Gecko) Chrome/87.0.4280.88 Safari/537.36",WebKit,Chrome,87.0.4280.88,Windows,6.3
1,1,"""",image-button-response,112,342266,0.0-7.0-6.3,A34XCQJG52CD3E,28.886000000000003,531,1,531,2,true,"""","""","""","""","""","""","""","""",6175.905000010971,"detection grids/013L.jpg","""","""","""","""","""","""","""","""","""","""","""","""","""","""","""","""",0,"""","""",true,"""","2021-01-02 18:08:50",63.75.250.40,"Mozilla/5.0 (Windows NT 6.3; WOW64) AppleWebKit/537.36 (KHTML, like Gecko) Chrome/87.0.4280.88 Safari/537.36",WebKit,Chrome,87.0.4280.88,Windows,6.3
1,1,"""",image-button-response,113,345836,0.0-7.0-7.3,A34XCQJG52CD3E,28.886000000000003,531,1,531,2,true,"""","""","""","""","""","""","""","""",3565.7799999899,"detection grids/013L.jpg","""","""","""","""","""","""","""","""","""","""","""","""","""","""","""","""",1,"""","""",true,"""","2021-01-02 18:08:50",63.75.250.40,"Mozilla/5.0 (Windows NT 6.3; WOW64) AppleWebKit/537.36 (KHTML, like Gecko) Chrome/87.0.4280.88 Safari/537.36",WebKit,Chrome,87.0.4280.88,Windows,6.3
1,1,"""",call-function,114,345843,0.0-7.0-0.4,A34XCQJG52CD3E,28.886000000000003,531,1,531,2,true,"[object Object]","""","""","""","""","""","""","""","""","""","""","""","""","""","""","""","""","""","""","""","""","""","""","""","""","""","""","""","""","""","""","2021-01-02 18:08:50",63.75.250.40,"Mozilla/5.0 (Windows NT 6.3; WOW64) AppleWebKit/537.36 (KHTML, like Gecko) Chrome/87.0.4280.88 Safari/537.36",WebKit,Chrome,87.0.4280.88,Windows,6.3
1,1,"""",html-keyboard-response,115,345844,0.0-7.0-1.4,A34XCQJG52CD3E,28.886000000000003,531,1,531,2,true,"[object Object]","""","""","""","""","""","""","""","""","""","""","""","""","""","""","""","""","""","""","""","""","""","""","""","""","""","""","""","""","""","""","2021-01-02 18:08:50",63.75.250.40,"Mozilla/5.0 (Windows NT 6.3; WOW64) AppleWebKit/537.36 (KHTML, like Gecko) Chrome/87.0.4280.88 Safari/537.36",WebKit,Chrome,87.0.4280.88,Windows,6.3
1,1,"""",html-keyboard-response,116,346846,0.0-7.0-2.4,A34XCQJG52CD3E,28.886000000000003,531,1,531,2,true,"""","""","""","""","""","""","""","""",null,"<p style=""font-size: 48px;"">ready?</p>","""",null,"""","""","""","""","""","""","""","""","""","""","""","""","""","""","""","""","""","""","""","2021-01-02 18:08:50",63.75.250.40,"Mozilla/5.0 (Windows NT 6.3; WOW64) AppleWebKit/537.36 (KHTML, like Gecko) Chrome/87.0.4280.88 Safari/537.36",WebKit,Chrome,87.0.4280.88,Windows,6.3
1,1,"""",html-keyboard-response,117,347848,0.0-7.0-3.4,A34XCQJG52CD3E,28.886000000000003,531,1,531,2,true,"""","""","""","""","""","""","""","""",null,"<p style=""font-size: 48px;"">ready?</p>","""",null,"""","""","""","""","""","""","""","""","""","""","""","""","""","""","""","""","""","""","""","2021-01-02 18:08:50",63.75.250.40,"Mozilla/5.0 (Windows NT 6.3; WOW64) AppleWebKit/537.36 (KHTML, like Gecko) Chrome/87.0.4280.88 Safari/537.36",WebKit,Chrome,87.0.4280.88,Windows,6.3
1,1,"""",html-keyboard-response,118,348850,0.0-7.0-4.4,A34XCQJG52CD3E,28.886000000000003,531,1,531,2,true,"""","""","""","""","""","""","""","""",null,"<p style=""font-size: 48px;"">ready?</p>","""",null,"""","""","""","""","""","""","""","""","""","""","""","""","""","""","""","""","""","""","""","2021-01-02 18:08:50",63.75.250.40,"Mozilla/5.0 (Windows NT 6.3; WOW64) AppleWebKit/537.36 (KHTML, like Gecko) Chrome/87.0.4280.88 Safari/537.36",WebKit,Chrome,87.0.4280.88,Windows,6.3
1,1,true,animation,119,354282,0.0-7.0-5.4,A34XCQJG52CD3E,28.886000000000003,531,1,531,2,true,"""","""","""","""","""","""","[{""stimulus"":""img/019_L_filler_absent.jpg"",""time"":321.4000000007218},{""stimulus"":""blank"",""time"":562.7749999985099},{""stimulus"":""img/019_L_filler_absent.jpg"",""time"":641.7599999986123},{""stimulus"":""blank"",""time"":882.1199999947567},{""stimulus"":""img/019_L_filler_present.jpg"",""time"":961.9450000027427},{""stimulus"":""blank"",""time"":1202.6000000041677},{""stimulus"":""img/019_L_filler_present.jpg"",""time"":1281.604999996489},{""stimulus"":""blank"",""time"":1522.9050000052666},{""stimulus"":""img/019_L_filler_absent.jpg"",""time"":1601.8349999940256},{""stimulus"":""blank"",""time"":1842.0599999953993},{""stimulus"":""img/019_L_filler_absent.jpg"",""time"":1921.860000002198},{""stimulus"":""blank"",""time"":2163.4550000017043},{""stimulus"":""img/019_L_filler_present.jpg"",""time"":2241.2900000053924},{""stimulus"":""blank"",""time"":2481.7650000040885},{""stimulus"":""img/019_L_filler_present.jpg"",""time"":2561.539999995148},{""stimulus"":""blank"",""time"":2802.964999995311},{""stimulus"":""img/019_L_filler_absent.jpg"",""time"":2881.859999994049},{""stimulus"":""blank"",""time"":3122.430000003078},{""stimulus"":""img/019_L_filler_absent.jpg"",""time"":3202.1050000039395},{""stimulus"":""blank"",""time"":3442.6950000051875},{""stimulus"":""img/019_L_filler_present.jpg"",""time"":3521.630000002915},{""stimulus"":""blank"",""time"":3762.0049999968614},{""stimulus"":""img/019_L_filler_present.jpg"",""time"":3841.7500000068685},{""stimulus"":""blank"",""time"":4082.3249999957625},{""stimulus"":""img/019_L_filler_absent.jpg"",""time"":4162.309999999707},{""stimulus"":""blank"",""time"":4402.67500000482},{""stimulus"":""img/019_L_filler_absent.jpg"",""time"":4481.610000002547},{""stimulus"":""blank"",""time"":4721.994999999879},{""stimulus"":""img/019_L_filler_present.jpg"",""time"":4801.739999995334},{""stimulus"":""blank"",""time"":5043.204999994487},{""stimulus"":""img/019_L_filler_present.jpg"",""time"":5121.060000004945},{""stimulus"":""blank"",""time"":5361.564999999246}]","[{""key_press"":32,""rt"":5426.030000002356,""stimulus"":""blank""}]",5426.149999999325,019,L,"""","""","""","""","""","""","""","""","""","""","""","""","""","""","""","""","1,3",5,"""","""","2021-01-02 18:08:50",63.75.250.40,"Mozilla/5.0 (Windows NT 6.3; WOW64) AppleWebKit/537.36 (KHTML, like Gecko) Chrome/87.0.4280.88 Safari/537.36",WebKit,Chrome,87.0.4280.88,Windows,6.3
1,1,"""",image-button-response,120,357510,0.0-7.0-6.4,A34XCQJG52CD3E,28.886000000000003,531,1,531,2,true,"""","""","""","""","""","""","""","""",3224.034999992,"detection grids/019L.jpg","""","""","""","""","""","""","""","""","""","""","""","""","""","""","""","""",1,"""","""",true,"""","2021-01-02 18:08:50",63.75.250.40,"Mozilla/5.0 (Windows NT 6.3; WOW64) AppleWebKit/537.36 (KHTML, like Gecko) Chrome/87.0.4280.88 Safari/537.36",WebKit,Chrome,87.0.4280.88,Windows,6.3
1,1,"""",image-button-response,121,359076,0.0-7.0-7.4,A34XCQJG52CD3E,28.886000000000003,531,1,531,2,true,"""","""","""","""","""","""","""","""",1555.7800000096904,"detection grids/019L.jpg","""","""","""","""","""","""","""","""","""","""","""","""","""","""","""","""",3,"""","""",true,"""","2021-01-02 18:08:50",63.75.250.40,"Mozilla/5.0 (Windows NT 6.3; WOW64) AppleWebKit/537.36 (KHTML, like Gecko) Chrome/87.0.4280.88 Safari/537.36",WebKit,Chrome,87.0.4280.88,Windows,6.3
1,1,"""",call-function,122,359080,0.0-7.0-0.5,A34XCQJG52CD3E,28.886000000000003,531,1,531,2,true,"[object Object]","""","""","""","""","""","""","""","""","""","""","""","""","""","""","""","""","""","""","""","""","""","""","""","""","""","""","""","""","""","""","2021-01-02 18:08:50",63.75.250.40,"Mozilla/5.0 (Windows NT 6.3; WOW64) AppleWebKit/537.36 (KHTML, like Gecko) Chrome/87.0.4280.88 Safari/537.36",WebKit,Chrome,87.0.4280.88,Windows,6.3
1,1,"""",html-keyboard-response,123,359081,0.0-7.0-1.5,A34XCQJG52CD3E,28.886000000000003,531,1,531,2,true,"[object Object]","""","""","""","""","""","""","""","""","""","""","""","""","""","""","""","""","""","""","""","""","""","""","""","""","""","""","""","""","""","""","2021-01-02 18:08:50",63.75.250.40,"Mozilla/5.0 (Windows NT 6.3; WOW64) AppleWebKit/537.36 (KHTML, like Gecko) Chrome/87.0.4280.88 Safari/537.36",WebKit,Chrome,87.0.4280.88,Windows,6.3
1,1,"""",html-keyboard-response,124,360083,0.0-7.0-2.5,A34XCQJG52CD3E,28.886000000000003,531,1,531,2,true,"""","""","""","""","""","""","""","""",null,"<p style=""font-size: 48px;"">ready?</p>","""",null,"""","""","""","""","""","""","""","""","""","""","""","""","""","""","""","""","""","""","""","2021-01-02 18:08:50",63.75.250.40,"Mozilla/5.0 (Windows NT 6.3; WOW64) AppleWebKit/537.36 (KHTML, like Gecko) Chrome/87.0.4280.88 Safari/537.36",WebKit,Chrome,87.0.4280.88,Windows,6.3
1,1,"""",html-keyboard-response,125,361085,0.0-7.0-3.5,A34XCQJG52CD3E,28.886000000000003,531,1,531,2,true,"""","""","""","""","""","""","""","""",null,"<p style=""font-size: 48px;"">ready?</p>","""",null,"""","""","""","""","""","""","""","""","""","""","""","""","""","""","""","""","""","""","""","2021-01-02 18:08:50",63.75.250.40,"Mozilla/5.0 (Windows NT 6.3; WOW64) AppleWebKit/537.36 (KHTML, like Gecko) Chrome/87.0.4280.88 Safari/537.36",WebKit,Chrome,87.0.4280.88,Windows,6.3
1,1,"""",html-keyboard-response,126,362094,0.0-7.0-4.5,A34XCQJG52CD3E,28.886000000000003,531,1,531,2,true,"""","""","""","""","""","""","""","""",null,"<p style=""font-size: 48px;"">ready?</p>","""",null,"""","""","""","""","""","""","""","""","""","""","""","""","""","""","""","""","""","""","""","2021-01-02 18:08:50",63.75.250.40,"Mozilla/5.0 (Windows NT 6.3; WOW64) AppleWebKit/537.36 (KHTML, like Gecko) Chrome/87.0.4280.88 Safari/537.36",WebKit,Chrome,87.0.4280.88,Windows,6.3
1,1,true,animation,127,370409,0.0-7.0-5.5,A34XCQJG52CD3E,28.886000000000003,531,1,531,2,true,"""","""","""","""","""","""","[{""stimulus"":""img/05_L_filler_absent.jpg"",""time"":321.7549999972107},{""stimulus"":""blank"",""time"":562.065000005532},{""stimulus"":""img/05_L_filler_absent.jpg"",""time"":643.0649999965681},{""stimulus"":""blank"",""time"":884.1300000058254},{""stimulus"":""img/05_L_filler_present.jpg"",""time"":962.4949999997625},{""stimulus"":""blank"",""time"":1203.509999992093},{""stimulus"":""img/05_L_filler_present.jpg"",""time"":1282.9400000046007},{""stimulus"":""blank"",""time"":1523.8850000023376},{""stimulus"":""img/05_L_filler_absent.jpg"",""time"":1601.9300000043586},{""stimulus"":""blank"",""time"":1842.145000002347},{""stimulus"":""img/05_L_filler_absent.jpg"",""time"":1922.1450000040932},{""stimulus"":""blank"",""time"":2163.430000000517},{""stimulus"":""img/05_L_filler_present.jpg"",""time"":2241.6599999996834},{""stimulus"":""blank"",""time"":2481.9750000024214},{""stimulus"":""img/05_L_filler_present.jpg"",""time"":2562.069999999949},{""stimulus"":""blank"",""time"":2804.114999991725},{""stimulus"":""img/05_L_filler_absent.jpg"",""time"":2882.369999992079},{""stimulus"":""blank"",""time"":3123.4799999947427},{""stimulus"":""img/05_L_filler_absent.jpg"",""time"":3202.1249999961583},{""stimulus"":""blank"",""time"":3443.9649999985704},{""stimulus"":""img/05_L_filler_present.jpg"",""time"":3522.349999999278},{""stimulus"":""blank"",""time"":3764.1199999925448},{""stimulus"":""img/05_L_filler_present.jpg"",""time"":3842.4749999976484},{""stimulus"":""blank"",""time"":4083.4199999953853},{""stimulus"":""img/05_L_filler_absent.jpg"",""time"":4161.579999999958},{""stimulus"":""blank"",""time"":4403.699999995297},{""stimulus"":""img/05_L_filler_absent.jpg"",""time"":4481.929999994463},{""stimulus"":""blank"",""time"":4723.079999996116},{""stimulus"":""img/05_L_filler_present.jpg"",""time"":4802.330000005895},{""stimulus"":""blank"",""time"":5043.344999998226},{""stimulus"":""img/05_L_filler_present.jpg"",""time"":5122.474999996484},{""stimulus"":""blank"",""time"":5365.680000002612},{""stimulus"":""img/05_L_filler_absent.jpg"",""time"":5443.060000005062},{""stimulus"":""blank"",""time"":5683.944999997038},{""stimulus"":""img/05_L_filler_absent.jpg"",""time"":5762.56000000285},{""stimulus"":""blank"",""time"":6003.329999992275},{""stimulus"":""img/05_L_filler_present.jpg"",""time"":6082.4699999939185},{""stimulus"":""blank"",""time"":6324.674999996205},{""stimulus"":""img/05_L_filler_present.jpg"",""time"":6401.784999994561},{""stimulus"":""blank"",""time"":6642.015000004903},{""stimulus"":""img/05_L_filler_absent.jpg"",""time"":6721.929999999702},{""stimulus"":""blank"",""time"":6962.314999997034},{""stimulus"":""img/05_L_filler_absent.jpg"",""time"":7042.325000002165},{""stimulus"":""blank"",""time"":7282.630000001518},{""stimulus"":""img/05_L_filler_present.jpg"",""time"":7361.625000005006},{""stimulus"":""blank"",""time"":7603.854999993928},{""stimulus"":""img/05_L_filler_present.jpg"",""time"":7682.434999995166},{""stimulus"":""blank"",""time"":7923.385000001872},{""stimulus"":""img/05_L_filler_absent.jpg"",""time"":8003.205000000889},{""stimulus"":""blank"",""time"":8244.714999993448}]","[{""key_press"":32,""rt"":8314.214999991236,""stimulus"":""blank""}]",8314.264999993611,05,L,"""","""","""","""","""","""","""","""","""","""","""","""","""","""","""","""","0,3",6,"""","""","2021-01-02 18:08:50",63.75.250.40,"Mozilla/5.0 (Windows NT 6.3; WOW64) AppleWebKit/537.36 (KHTML, like Gecko) Chrome/87.0.4280.88 Safari/537.36",WebKit,Chrome,87.0.4280.88,Windows,6.3
1,1,"""",image-button-response,128,374395,0.0-7.0-6.5,A34XCQJG52CD3E,28.886000000000003,531,1,531,2,true,"""","""","""","""","""","""","""","""",3973.230000003241,"detection grids/05L.jpg","""","""","""","""","""","""","""","""","""","""","""","""","""","""","""","""",0,"""","""",true,"""","2021-01-02 18:08:50",63.75.250.40,"Mozilla/5.0 (Windows NT 6.3; WOW64) AppleWebKit/537.36 (KHTML, like Gecko) Chrome/87.0.4280.88 Safari/537.36",WebKit,Chrome,87.0.4280.88,Windows,6.3
1,1,"""",image-button-response,129,375536,0.0-7.0-7.5,A34XCQJG52CD3E,28.886000000000003,531,1,531,2,true,"""","""","""","""","""","""","""","""",1136.3500000006752,"detection grids/05L.jpg","""","""","""","""","""","""","""","""","""","""","""","""","""","""","""","""",3,"""","""",true,"""","2021-01-02 18:08:50",63.75.250.40,"Mozilla/5.0 (Windows NT 6.3; WOW64) AppleWebKit/537.36 (KHTML, like Gecko) Chrome/87.0.4280.88 Safari/537.36",WebKit,Chrome,87.0.4280.88,Windows,6.3
1,1,"""",call-function,130,375548,0.0-7.0-0.6,A34XCQJG52CD3E,28.886000000000003,531,1,531,2,true,"[object Object]","""","""","""","""","""","""","""","""","""","""","""","""","""","""","""","""","""","""","""","""","""","""","""","""","""","""","""","""","""","""","2021-01-02 18:08:50",63.75.250.40,"Mozilla/5.0 (Windows NT 6.3; WOW64) AppleWebKit/537.36 (KHTML, like Gecko) Chrome/87.0.4280.88 Safari/537.36",WebKit,Chrome,87.0.4280.88,Windows,6.3
1,1,"""",html-keyboard-response,131,375549,0.0-7.0-1.6,A34XCQJG52CD3E,28.886000000000003,531,1,531,2,true,"[object Object]","""","""","""","""","""","""","""","""","""","""","""","""","""","""","""","""","""","""","""","""","""","""","""","""","""","""","""","""","""","""","2021-01-02 18:08:50",63.75.250.40,"Mozilla/5.0 (Windows NT 6.3; WOW64) AppleWebKit/537.36 (KHTML, like Gecko) Chrome/87.0.4280.88 Safari/537.36",WebKit,Chrome,87.0.4280.88,Windows,6.3
1,1,"""",html-keyboard-response,132,376551,0.0-7.0-2.6,A34XCQJG52CD3E,28.886000000000003,531,1,531,2,true,"""","""","""","""","""","""","""","""",null,"<p style=""font-size: 48px;"">ready?</p>","""",null,"""","""","""","""","""","""","""","""","""","""","""","""","""","""","""","""","""","""","""","2021-01-02 18:08:50",63.75.250.40,"Mozilla/5.0 (Windows NT 6.3; WOW64) AppleWebKit/537.36 (KHTML, like Gecko) Chrome/87.0.4280.88 Safari/537.36",WebKit,Chrome,87.0.4280.88,Windows,6.3
1,1,"""",html-keyboard-response,133,377553,0.0-7.0-3.6,A34XCQJG52CD3E,28.886000000000003,531,1,531,2,true,"""","""","""","""","""","""","""","""",null,"<p style=""font-size: 48px;"">ready?</p>","""",null,"""","""","""","""","""","""","""","""","""","""","""","""","""","""","""","""","""","""","""","2021-01-02 18:08:50",63.75.250.40,"Mozilla/5.0 (Windows NT 6.3; WOW64) AppleWebKit/537.36 (KHTML, like Gecko) Chrome/87.0.4280.88 Safari/537.36",WebKit,Chrome,87.0.4280.88,Windows,6.3
1,1,"""",html-keyboard-response,134,378555,0.0-7.0-4.6,A34XCQJG52CD3E,28.886000000000003,531,1,531,2,true,"""","""","""","""","""","""","""","""",null,"<p style=""font-size: 48px;"">ready?</p>","""",null,"""","""","""","""","""","""","""","""","""","""","""","""","""","""","""","""","""","""","""","2021-01-02 18:08:50",63.75.250.40,"Mozilla/5.0 (Windows NT 6.3; WOW64) AppleWebKit/537.36 (KHTML, like Gecko) Chrome/87.0.4280.88 Safari/537.36",WebKit,Chrome,87.0.4280.88,Windows,6.3
1,1,true,animation,135,391874,0.0-7.0-5.6,A34XCQJG52CD3E,28.886000000000003,531,1,531,2,true,"""","""","""","""","""","""","[{""stimulus"":""img/023_L_filler_absent.jpg"",""time"":321.19000000238884},{""stimulus"":""blank"",""time"":561.7900000070222},{""stimulus"":""img/023_L_filler_absent.jpg"",""time"":641.7599999986123},{""stimulus"":""blank"",""time"":883.1300000019837},{""stimulus"":""img/023_L_filler_present.jpg"",""time"":962.0700000086799},{""stimulus"":""blank"",""time"":1202.4600000004284},{""stimulus"":""img/023_L_filler_present.jpg"",""time"":1282.2400000004563},{""stimulus"":""blank"",""time"":1523.7550000019837},{""stimulus"":""img/023_L_filler_absent.jpg"",""time"":1601.7350000038277},{""stimulus"":""blank"",""time"":1842.094999999972},{""stimulus"":""img/023_L_filler_absent.jpg"",""time"":1922.0150000037393},{""stimulus"":""blank"",""time"":2162.370000005467},{""stimulus"":""img/023_L_filler_present.jpg"",""time"":2241.439999997965},{""stimulus"":""blank"",""time"":2481.7299999995157},{""stimulus"":""img/023_L_filler_present.jpg"",""time"":2561.5400000096997},{""stimulus"":""blank"",""time"":2802.0850000029895},{""stimulus"":""img/023_L_filler_absent.jpg"",""time"":2882.080000010319},{""stimulus"":""blank"",""time"":3122.3600000084843},{""stimulus"":""img/023_L_filler_absent.jpg"",""time"":3202.2799999976996},{""stimulus"":""blank"",""time"":3442.6800000073854},{""stimulus"":""img/023_L_filler_present.jpg"",""time"":3522.414999999455},{""stimulus"":""blank"",""time"":3763.010000009672},{""stimulus"":""img/023_L_filler_present.jpg"",""time"":3841.7800000024727},{""stimulus"":""blank"",""time"":4083.440000002156},{""stimulus"":""img/023_L_filler_absent.jpg"",""time"":4162.345000004279},{""stimulus"":""blank"",""time"":4402.654999998049},{""stimulus"":""img/023_L_filler_absent.jpg"",""time"":4481.679999997141},{""stimulus"":""blank"",""time"":4722.034999998868},{""stimulus"":""img/023_L_filler_present.jpg"",""time"":4802.235000010114},{""stimulus"":""blank"",""time"":5043.295000010403},{""stimulus"":""img/023_L_filler_present.jpg"",""time"":5121.075000002747},{""stimulus"":""blank"",""time"":5361.684999996214},{""stimulus"":""img/023_L_filler_absent.jpg"",""time"":5441.33500001044},{""stimulus"":""blank"",""time"":5681.955000007292},{""stimulus"":""img/023_L_filler_absent.jpg"",""time"":5761.750000005122},{""stimulus"":""blank"",""time"":6002.780000009807},{""stimulus"":""img/023_L_filler_present.jpg"",""time"":6081.530000010389},{""stimulus"":""blank"",""time"":6322.950000001583},{""stimulus"":""img/023_L_filler_present.jpg"",""time"":6401.570000001811},{""stimulus"":""blank"",""time"":6644.430000000284},{""stimulus"":""img/023_L_filler_absent.jpg"",""time"":6723.515000005136},{""stimulus"":""blank"",""time"":6964.1800000099465},{""stimulus"":""img/023_L_filler_absent.jpg"",""time"":7043.839999998454},{""stimulus"":""blank"",""time"":7284.490000005462},{""stimulus"":""img/023_L_filler_present.jpg"",""time"":7361.48000000685},{""stimulus"":""blank"",""time"":7601.869999998598},{""stimulus"":""img/023_L_filler_present.jpg"",""time"":7681.640000009793},{""stimulus"":""blank"",""time"":7923.320000001695},{""stimulus"":""img/023_L_filler_absent.jpg"",""time"":8001.290000000154},{""stimulus"":""blank"",""time"":8241.5500000061},{""stimulus"":""img/023_L_filler_absent.jpg"",""time"":8321.70000000042},{""stimulus"":""blank"",""time"":8562.845000007655},{""stimulus"":""img/023_L_filler_present.jpg"",""time"":8642.265000002226},{""stimulus"":""blank"",""time"":8884.165000010398},{""stimulus"":""img/023_L_filler_present.jpg"",""time"":8962.079999997513},{""stimulus"":""blank"",""time"":9202.4800000072},{""stimulus"":""img/023_L_filler_absent.jpg"",""time"":9282.170000005863},{""stimulus"":""blank"",""time"":9522.785000008298},{""stimulus"":""img/023_L_filler_absent.jpg"",""time"":9601.620000001276},{""stimulus"":""blank"",""time"":9843.02500000922},{""stimulus"":""img/023_L_filler_present.jpg"",""time"":9922.099999996135},{""stimulus"":""blank"",""time"":10162.940000009257},{""stimulus"":""img/023_L_filler_present.jpg"",""time"":10242.250000010245},{""stimulus"":""blank"",""time"":10482.70500000217},{""stimulus"":""img/023_L_filler_absent.jpg"",""time"":10561.48000000394},{""stimulus"":""blank"",""time"":10802.055000007385},{""stimulus"":""img/023_L_filler_absent.jpg"",""time"":10881.869999997434},{""stimulus"":""blank"",""time"":11123.550000003888},{""stimulus"":""img/023_L_filler_present.jpg"",""time"":11202.134999999544},{""stimulus"":""blank"",""time"":11442.670000004},{""stimulus"":""img/023_L_filler_present.jpg"",""time"":11521.705000006477},{""stimulus"":""blank"",""time"":11762.029999998049},{""stimulus"":""img/023_L_filler_absent.jpg"",""time"":11841.730000000098},{""stimulus"":""blank"",""time"":12083.350000000792},{""stimulus"":""img/023_L_filler_absent.jpg"",""time"":12161.195000007865},{""stimulus"":""blank"",""time"":12401.754999998957},{""stimulus"":""img/023_L_filler_present.jpg"",""time"":12481.419999996433},{""stimulus"":""blank"",""time"":12722.01500000665},{""stimulus"":""img/023_L_filler_present.jpg"",""time"":12802.880000002915},{""stimulus"":""blank"",""time"":13043.295000010403},{""stimulus"":""img/023_L_filler_absent.jpg"",""time"":13122.090000004391}]","[{""key_press"":32,""rt"":13313.149999987218,""stimulus"":""img/023_L_filler_absent.jpg""}]",13313.215000001946,023,L,"""","""","""","""","""","""","""","""","""","""","""","""","""","""","""","""","1,2",7,"""","""","2021-01-02 18:08:50",63.75.250.40,"Mozilla/5.0 (Windows NT 6.3; WOW64) AppleWebKit/537.36 (KHTML, like Gecko) Chrome/87.0.4280.88 Safari/537.36",WebKit,Chrome,87.0.4280.88,Windows,6.3
1,1,"""",image-button-response,136,395816,0.0-7.0-6.6,A34XCQJG52CD3E,28.886000000000003,531,1,531,2,true,"""","""","""","""","""","""","""","""",3938.1999999895925,"detection grids/023L.jpg","""","""","""","""","""","""","""","""","""","""","""","""","""","""","""","""",1,"""","""",true,"""","2021-01-02 18:08:50",63.75.250.40,"Mozilla/5.0 (Windows NT 6.3; WOW64) AppleWebKit/537.36 (KHTML, like Gecko) Chrome/87.0.4280.88 Safari/537.36",WebKit,Chrome,87.0.4280.88,Windows,6.3
