run_id,condition,success,trial_type,trial_index,time_elapsed,internal_node_id,id,distance,width,train_repeats,card_width_px,condition,value,final_width_px,scale_factor,item_width,pixels_unit_screen,pixels_per_unit,animation_sequence,responses,rt,stimulus,stimulus_side,key_press,training,button_pressed,col_row_answers,cb_trial,correct_response,acc,animation_performance,bProblem,sProblem,trial_began,timing_response,fade_out_time,fade_in_time,fade_out_length,stimulus_alpha,timing_post_trial,within_ITI,trial,question_order,,recorded_at,ip,user_agent,device,browser,browser_version,platform,platform_version
1,1,true,fullscreen,0,3858,0.0-0.0-0.0,A1JJYY622DGE5L,65.681,306,1,306,1,"""","""","""","""","""","""","""","""","""","""","""","""","""","""","""","""","""","""","""","""","""","""","""","""","""","""","""","""","""","""","""","2020-12-09 14:53:02",107.11.182.13,"Mozilla/5.0 (Windows NT 10.0; Win64; x64) AppleWebKit/537.36 (KHTML, like Gecko) Chrome/87.0.4280.88 Safari/537.36",WebKit,Chrome,87.0.4280.88,Windows,10.0
1,1,"""",call-function,1,3865,0.0-0.0-1.0,A1JJYY622DGE5L,65.681,306,1,306,1,"""","""","""","""","""","""","""","""","""","""","""","""","""","""","""","""","""","""","""","""","""","""","""","""","""","""","""","""","""","""","""","2020-12-09 14:53:02",107.11.182.13,"Mozilla/5.0 (Windows NT 10.0; Win64; x64) AppleWebKit/537.36 (KHTML, like Gecko) Chrome/87.0.4280.88 Safari/537.36",WebKit,Chrome,87.0.4280.88,Windows,10.0
1,1,"""",new-resize,2,3867,0.0-0.0-2.0,A1JJYY622DGE5L,65.681,306,1,306,1,"""",306,0.6044444444444445,3.375,90.66666666666667,150,"""","""","""","""","""","""","""","""","""","""","""","""","""","""","""","""","""","""","""","""","""","""","""","""","""","2020-12-09 14:53:02",107.11.182.13,"Mozilla/5.0 (Windows NT 10.0; Win64; x64) AppleWebKit/537.36 (KHTML, like Gecko) Chrome/87.0.4280.88 Safari/537.36",WebKit,Chrome,87.0.4280.88,Windows,10.0
1,1,"""",animation,3,3874,0.0-0.0-3.0,A1JJYY622DGE5L,65.681,306,1,306,1,"""","""","""","""","""","""","[{""stimulus"":""img/demo1_absent.jpg"",""time"":4.059999992023222}]",[],"""",1,o,"""","""","""","""","""","""","""","""","""","""","""","""","""","""","""","""","""","""","""","""","2020-12-09 14:53:02",107.11.182.13,"Mozilla/5.0 (Windows NT 10.0; Win64; x64) AppleWebKit/537.36 (KHTML, like Gecko) Chrome/87.0.4280.88 Safari/537.36",WebKit,Chrome,87.0.4280.88,Windows,10.0
1,1,"""",html-keyboard-response,4,10741,0.0-0.0-4.0-0.0,A1JJYY622DGE5L,65.681,306,1,306,1,"""","""","""","""","""","""","""","""",6864.984999992885,"<p style='font-size: 28px;' align='justify'>We finished the calibration stage! We will now continue to the main task of this experiment.</p>                <p style='font-size: 28px;' align='justify'><b>We remind you to make an effort to move as little as possible until the end of the task.</b></p>                <p style='font-size: 28px;'><b>Please read the following instructions carefully.</b></p>                <p style='font-size: 24px;'><i>Press the space bar to continue</i></p>","""",32,"""","""","""","""","""","""","""","""","""","""","""","""","""","""","""","""","""","""","""","2020-12-09 14:53:02",107.11.182.13,"Mozilla/5.0 (Windows NT 10.0; Win64; x64) AppleWebKit/537.36 (KHTML, like Gecko) Chrome/87.0.4280.88 Safari/537.36",WebKit,Chrome,87.0.4280.88,Windows,10.0
1,1,"""",html-keyboard-response,5,15694,0.0-0.0-4.0-1.0,A1JJYY622DGE5L,65.681,306,1,306,1,"""","""","""","""","""","""","""","""",4946.779999998398,"<p style='font-size: 28px;' align='justify'>This experiment is made up of two different tasks, followed by a short questionnaire.</p>                <p style='font-size: 28px;' align='justify'>Each task should take about 10-20 minutes, and the questionnaire another 5 minutes.</p>                <p style='font-size: 24px;'><i>Press the space bar to continue to the first task's instructions</i></p>","""",32,"""","""","""","""","""","""","""","""","""","""","""","""","""","""","""","""","""","""","""","2020-12-09 14:53:02",107.11.182.13,"Mozilla/5.0 (Windows NT 10.0; Win64; x64) AppleWebKit/537.36 (KHTML, like Gecko) Chrome/87.0.4280.88 Safari/537.36",WebKit,Chrome,87.0.4280.88,Windows,10.0
1,1,"""",html-keyboard-response,6,33316,0.0-1.0-0.0-0.0,A1JJYY622DGE5L,65.681,306,1,306,1,"""","""","""","""","""","""","""","""",17619.55499999749,"<p style='font-size: 28px;' align='justify'>In this part you will be asked to find a single flickering object within a scene.    Each time you will be presented with one scene. This scene will be static, except for one single object that will be appearing and disappearing.    Your goal will be to detect this object as quickly and accurately as you can.</p>    <p style='font-size: 28px;' align='justify'>We will ask you to place your finger over the space bar, and once you have found the object press the space bar <b>as quickly as possible.</b></p>    <p style='font-size: 28px;' align='justify'>For each scene, you will have up to 60 seconds to do so. After that you will be asked about the location of the object.</P>    <br>    <p style='font-size: 28px;'>We will now continue with a short practice before starting the task.</p>    <br>    <p style='font-size: 24px;'><i>Press the space bar to continue</i></p>","""",32,"""","""","""","""","""","""","""","""","""","""","""","""","""","""","""","""","""","""","""","2020-12-09 14:53:02",107.11.182.13,"Mozilla/5.0 (Windows NT 10.0; Win64; x64) AppleWebKit/537.36 (KHTML, like Gecko) Chrome/87.0.4280.88 Safari/537.36",WebKit,Chrome,87.0.4280.88,Windows,10.0
1,1,"""",animation,7,36335,0.0-1.0-1.0,A1JJYY622DGE5L,65.681,306,1,306,1,"""","""","""","""","""","""","[{""stimulus"":""img/demo1_absent.jpg"",""time"":503.50500000058673},{""stimulus"":""img/demo1_absent.jpg"",""time"":1002.8449999954319},{""stimulus"":""img/demo1_present.jpg"",""time"":1501.829999993788},{""stimulus"":""img/demo1_present.jpg"",""time"":2007.2950000030687},{""stimulus"":""img/demo1_absent.jpg"",""time"":2502.215000000433},{""stimulus"":""img/demo1_absent.jpg"",""time"":3004.5049999898765}]","[{""key_press"":32,""rt"":3007.2499999951106,""stimulus"":""img/demo1_absent.jpg""}]",3007.834999996703,1,o,"""",true,"""","""","""","""","""","""","""","""","""","""","""","""","""","""","""","""","""","""","2020-12-09 14:53:02",107.11.182.13,"Mozilla/5.0 (Windows NT 10.0; Win64; x64) AppleWebKit/537.36 (KHTML, like Gecko) Chrome/87.0.4280.88 Safari/537.36",WebKit,Chrome,87.0.4280.88,Windows,10.0
1,1,"""",image-button-response,8,42305,0.0-1.0-2.0,A1JJYY622DGE5L,65.681,306,1,306,1,"""","""","""","""","""","""","""","""",5948.285000005853,"detection grids/demo1.jpg","""","""",true,2,"""","""","""","""","""","""","""","""","""","""","""","""","""","""","""","""","""","2020-12-09 14:53:02",107.11.182.13,"Mozilla/5.0 (Windows NT 10.0; Win64; x64) AppleWebKit/537.36 (KHTML, like Gecko) Chrome/87.0.4280.88 Safari/537.36",WebKit,Chrome,87.0.4280.88,Windows,10.0
1,1,"""",image-button-response,9,43720,0.0-1.0-3.0,A1JJYY622DGE5L,65.681,306,1,306,1,"""","""","""","""","""","""","""","""",1408.770000009099,"detection grids/demo1.jpg","""","""",true,2,"""","""","""","""","""","""","""","""","""","""","""","""","""","""","""","""","""","2020-12-09 14:53:02",107.11.182.13,"Mozilla/5.0 (Windows NT 10.0; Win64; x64) AppleWebKit/537.36 (KHTML, like Gecko) Chrome/87.0.4280.88 Safari/537.36",WebKit,Chrome,87.0.4280.88,Windows,10.0
1,1,"""",html-keyboard-response,10,45954,0.0-1.0-4.0-0.0,A1JJYY622DGE5L,65.681,306,1,306,1,"""","""","""","""","""","""","""","""",2231.0299999953713,"<p style='font-size: 28px;'>That was easy, right?</p>                <p style='font-size: 28px;'>Now let's have another practice. This time it will be a bit more difficult.</p>                <p style='font-size: 24px;'><i>Press the space bar to continue</i></p>","""",32,"""","""","""","""","""","""","""","""","""","""","""","""","""","""","""","""","""","""","""","2020-12-09 14:53:02",107.11.182.13,"Mozilla/5.0 (Windows NT 10.0; Win64; x64) AppleWebKit/537.36 (KHTML, like Gecko) Chrome/87.0.4280.88 Safari/537.36",WebKit,Chrome,87.0.4280.88,Windows,10.0
1,1,"""",animation,11,61834,0.0-1.0-5.0,A1JJYY622DGE5L,65.681,306,1,306,1,"""","""","""","""","""","""","[{""stimulus"":""img/demo2_absent.jpg"",""time"":324.18999999936204},{""stimulus"":""blank"",""time"":567.6899999962188},{""stimulus"":""img/demo2_absent.jpg"",""time"":644.7499999922002},{""stimulus"":""blank"",""time"":887.3500000045169},{""stimulus"":""img/demo2_present.jpg"",""time"":961.7750000033993},{""stimulus"":""blank"",""time"":1203.3150000061141},{""stimulus"":""img/demo2_present.jpg"",""time"":1283.97999999288},{""stimulus"":""blank"",""time"":1526.3799999956973},{""stimulus"":""img/demo2_absent.jpg"",""time"":1601.634999999078},{""stimulus"":""blank"",""time"":1843.315000005532},{""stimulus"":""img/demo2_absent.jpg"",""time"":1921.6250000026776},{""stimulus"":""blank"",""time"":2163.574999998673},{""stimulus"":""img/demo2_present.jpg"",""time"":2242.9750000010245},{""stimulus"":""blank"",""time"":2486.625000005006},{""stimulus"":""img/demo2_present.jpg"",""time"":2563.399999999092},{""stimulus"":""blank"",""time"":2807.5499999977183},{""stimulus"":""img/demo2_absent.jpg"",""time"":2882.1400000015274},{""stimulus"":""blank"",""time"":3123.5650000016904},{""stimulus"":""img/demo2_absent.jpg"",""time"":3202.3499999922933},{""stimulus"":""blank"",""time"":3444.88999999885},{""stimulus"":""img/demo2_present.jpg"",""time"":3522.335000001476},{""stimulus"":""blank"",""time"":3764.775000003283},{""stimulus"":""img/demo2_present.jpg"",""time"":3842.1649999945657},{""stimulus"":""blank"",""time"":4083.694999993895},{""stimulus"":""img/demo2_absent.jpg"",""time"":4162.320000003092},{""stimulus"":""blank"",""time"":4404.664999994566},{""stimulus"":""img/demo2_absent.jpg"",""time"":4482.845000005909},{""stimulus"":""blank"",""time"":4724.629999996978},{""stimulus"":""img/demo2_present.jpg"",""time"":4802.364999995916},{""stimulus"":""blank"",""time"":5043.730000004871},{""stimulus"":""img/demo2_present.jpg"",""time"":5122.044999996433},{""stimulus"":""blank"",""time"":5364.614999998594},{""stimulus"":""img/demo2_absent.jpg"",""time"":5442.0850000024075},{""stimulus"":""blank"",""time"":5686.4800000039395},{""stimulus"":""img/demo2_absent.jpg"",""time"":5762.199999997392},{""stimulus"":""blank"",""time"":6015.589999995427},{""stimulus"":""img/demo2_present.jpg"",""time"":6082.280000002356},{""stimulus"":""blank"",""time"":6324.6800000051735},{""stimulus"":""img/demo2_present.jpg"",""time"":6402.799999996205},{""stimulus"":""blank"",""time"":6644.29999999993},{""stimulus"":""img/demo2_absent.jpg"",""time"":6722.389999995357},{""stimulus"":""blank"",""time"":6964.779999994789},{""stimulus"":""img/demo2_absent.jpg"",""time"":7042.780000003404},{""stimulus"":""blank"",""time"":7284.409999992931},{""stimulus"":""img/demo2_present.jpg"",""time"":7364.134999996168},{""stimulus"":""blank"",""time"":7607.235000003129},{""stimulus"":""img/demo2_present.jpg"",""time"":7683.2849999918835},{""stimulus"":""blank"",""time"":7926.279999999679},{""stimulus"":""img/demo2_absent.jpg"",""time"":8003.484999993816},{""stimulus"":""blank"",""time"":8246.044999992591},{""stimulus"":""img/demo2_absent.jpg"",""time"":8323.449999996228},{""stimulus"":""blank"",""time"":8566.120000003139},{""stimulus"":""img/demo2_present.jpg"",""time"":8643.15999999235},{""stimulus"":""blank"",""time"":8885.819999995874},{""stimulus"":""img/demo2_present.jpg"",""time"":8964.684999999008},{""stimulus"":""blank"",""time"":9207.914999991772},{""stimulus"":""img/demo2_absent.jpg"",""time"":9283.989999996265},{""stimulus"":""blank"",""time"":9535.925000003772},{""stimulus"":""img/demo2_absent.jpg"",""time"":9603.740000005928},{""stimulus"":""blank"",""time"":9846.804999993765},{""stimulus"":""img/demo2_present.jpg"",""time"":9923.725000000559},{""stimulus"":""blank"",""time"":10166.274999995949},{""stimulus"":""img/demo2_present.jpg"",""time"":10243.684999994002},{""stimulus"":""blank"",""time"":10487.2250000044},{""stimulus"":""img/demo2_absent.jpg"",""time"":10563.574999992852},{""stimulus"":""blank"",""time"":10807.084999993094},{""stimulus"":""img/demo2_absent.jpg"",""time"":10882.209999996121},{""stimulus"":""blank"",""time"":11123.58499999391},{""stimulus"":""img/demo2_present.jpg"",""time"":11202.999999994063},{""stimulus"":""blank"",""time"":11444.71500000509},{""stimulus"":""img/demo2_present.jpg"",""time"":11523.520000002463},{""stimulus"":""blank"",""time"":11765.480000001844},{""stimulus"":""img/demo2_absent.jpg"",""time"":11842.934999993304},{""stimulus"":""blank"",""time"":12085.164999996778},{""stimulus"":""img/demo2_absent.jpg"",""time"":12163.56000000087},{""stimulus"":""blank"",""time"":12406.294999993406},{""stimulus"":""img/demo2_present.jpg"",""time"":12483.634999996866},{""stimulus"":""blank"",""time"":12726.685000001453},{""stimulus"":""img/demo2_present.jpg"",""time"":12803.289999996196},{""stimulus"":""blank"",""time"":13045.845000000554},{""stimulus"":""img/demo2_absent.jpg"",""time"":13123.894999996992},{""stimulus"":""blank"",""time"":13367.584999999963},{""stimulus"":""img/demo2_absent.jpg"",""time"":13441.944999998668},{""stimulus"":""blank"",""time"":13683.300000004238},{""stimulus"":""img/demo2_present.jpg"",""time"":13763.024999992922},{""stimulus"":""blank"",""time"":14008.069999996223},{""stimulus"":""img/demo2_present.jpg"",""time"":14083.589999994729},{""stimulus"":""blank"",""time"":14326.205000004848},{""stimulus"":""img/demo2_absent.jpg"",""time"":14403.195000006235},{""stimulus"":""blank"",""time"":14645.944999996573},{""stimulus"":""img/demo2_absent.jpg"",""time"":14723.660000003292},{""stimulus"":""blank"",""time"":14966.585000001942},{""stimulus"":""img/demo2_present.jpg"",""time"":15043.66999999911},{""stimulus"":""blank"",""time"":15286.670000001322},{""stimulus"":""img/demo2_present.jpg"",""time"":15362.615000005462},{""stimulus"":""blank"",""time"":15605.330000005779},{""stimulus"":""img/demo2_absent.jpg"",""time"":15681.92000000272}]","[{""key_press"":32,""rt"":15852.49499999918,""stimulus"":""img/demo2_absent.jpg""}]",15852.664999998524,2,o,"""",true,"""","""","""","""","""","""","""","""","""","""","""","""","""","""","""","""","""","""","2020-12-09 14:53:02",107.11.182.13,"Mozilla/5.0 (Windows NT 10.0; Win64; x64) AppleWebKit/537.36 (KHTML, like Gecko) Chrome/87.0.4280.88 Safari/537.36",WebKit,Chrome,87.0.4280.88,Windows,10.0
1,1,"""",image-keyboard-response,12,68580,0.0-1.0-6.0,A1JJYY622DGE5L,65.681,306,1,306,1,"""","""","""","""","""","""","""","""",6735.554999992019,"detection grids/demo2.jpg","""",32,"""","""","""","""","""","""","""","""","""","""","""","""","""","""","""","""","""","""","""","2020-12-09 14:53:02",107.11.182.13,"Mozilla/5.0 (Windows NT 10.0; Win64; x64) AppleWebKit/537.36 (KHTML, like Gecko) Chrome/87.0.4280.88 Safari/537.36",WebKit,Chrome,87.0.4280.88,Windows,10.0
1,1,"""",image-button-response,13,70242,0.0-1.0-7.0,A1JJYY622DGE5L,65.681,306,1,306,1,"""","""","""","""","""","""","""","""",1651.4999999926658,"detection grids/demo2.jpg","""","""",true,0,"""","""","""","""","""","""","""","""","""","""","""","""","""","""","""","""","""","2020-12-09 14:53:02",107.11.182.13,"Mozilla/5.0 (Windows NT 10.0; Win64; x64) AppleWebKit/537.36 (KHTML, like Gecko) Chrome/87.0.4280.88 Safari/537.36",WebKit,Chrome,87.0.4280.88,Windows,10.0
1,1,"""",image-button-response,14,71316,0.0-1.0-8.0,A1JJYY622DGE5L,65.681,306,1,306,1,"""","""","""","""","""","""","""","""",1069.4450000009965,"detection grids/demo2.jpg","""","""",true,1,"""","""","""","""","""","""","""","""","""","""","""","""","""","""","""","""","""","2020-12-09 14:53:02",107.11.182.13,"Mozilla/5.0 (Windows NT 10.0; Win64; x64) AppleWebKit/537.36 (KHTML, like Gecko) Chrome/87.0.4280.88 Safari/537.36",WebKit,Chrome,87.0.4280.88,Windows,10.0
1,1,"""",html-keyboard-response,15,73627,0.0-1.0-9.0-0.0,A1JJYY622DGE5L,65.681,306,1,306,1,"""","""","""","""","""","""","""","""",2308.369999998831,"<p style='font-size: 28px;'>Great! You are now ready to continue to the task.</p>                <p style='font-size: 28px;'>You will now be shown a series of similar trials one after another.</p>                <p style='font-size: 28px;'>It will take about 10-15 minutes until the next break.</p>                <p style='font-size: 28px;'>We ask you to keep your finger over the space bar and stay concentrated the whole time.</p>                <p style='font-size: 24px;'><i>Press the space bar when ready</i></p>","""",32,"""","""","""","""","""","""","""","""","""","""","""","""","""","""","""","""","""","""","""","2020-12-09 14:53:02",107.11.182.13,"Mozilla/5.0 (Windows NT 10.0; Win64; x64) AppleWebKit/537.36 (KHTML, like Gecko) Chrome/87.0.4280.88 Safari/537.36",WebKit,Chrome,87.0.4280.88,Windows,10.0
1,1,"""",call-function,16,73644,0.0-2.0-0.0,A1JJYY622DGE5L,65.681,306,1,306,1,"[object Object]","""","""","""","""","""","""","""","""","""","""","""","""","""","""","""","""","""","""","""","""","""","""","""","""","""","""","""","""","""","""","2020-12-09 14:53:02",107.11.182.13,"Mozilla/5.0 (Windows NT 10.0; Win64; x64) AppleWebKit/537.36 (KHTML, like Gecko) Chrome/87.0.4280.88 Safari/537.36",WebKit,Chrome,87.0.4280.88,Windows,10.0
1,1,"""",html-keyboard-response,17,73660,0.0-2.0-1.0,A1JJYY622DGE5L,65.681,306,1,306,1,"[object Object]","""","""","""","""","""","""","""","""","""","""","""","""","""","""","""","""","""","""","""","""","""","""","""","""","""","""","""","""","""","""","2020-12-09 14:53:02",107.11.182.13,"Mozilla/5.0 (Windows NT 10.0; Win64; x64) AppleWebKit/537.36 (KHTML, like Gecko) Chrome/87.0.4280.88 Safari/537.36",WebKit,Chrome,87.0.4280.88,Windows,10.0
1,1,"""",html-keyboard-response,18,74661,0.0-2.0-2.0,A1JJYY622DGE5L,65.681,306,1,306,1,"""","""","""","""","""","""","""","""",null,"<p style=""font-size: 48px;"">ready?</p>","""",null,"""","""","""","""","""","""","""","""","""","""","""","""","""","""","""","""","""","""","""","2020-12-09 14:53:02",107.11.182.13,"Mozilla/5.0 (Windows NT 10.0; Win64; x64) AppleWebKit/537.36 (KHTML, like Gecko) Chrome/87.0.4280.88 Safari/537.36",WebKit,Chrome,87.0.4280.88,Windows,10.0
1,1,"""",html-keyboard-response,19,75663,0.0-2.0-3.0,A1JJYY622DGE5L,65.681,306,1,306,1,"""","""","""","""","""","""","""","""",null,"<p style=""font-size: 48px;"">ready?</p>","""",null,"""","""","""","""","""","""","""","""","""","""","""","""","""","""","""","""","""","""","""","2020-12-09 14:53:02",107.11.182.13,"Mozilla/5.0 (Windows NT 10.0; Win64; x64) AppleWebKit/537.36 (KHTML, like Gecko) Chrome/87.0.4280.88 Safari/537.36",WebKit,Chrome,87.0.4280.88,Windows,10.0
1,1,"""",html-keyboard-response,20,76666,0.0-2.0-4.0,A1JJYY622DGE5L,65.681,306,1,306,1,"""","""","""","""","""","""","""","""",null,"<p style=""font-size: 48px;"">ready?</p>","""",null,"""","""","""","""","""","""","""","""","""","""","""","""","""","""","""","""","""","""","""","2020-12-09 14:53:02",107.11.182.13,"Mozilla/5.0 (Windows NT 10.0; Win64; x64) AppleWebKit/537.36 (KHTML, like Gecko) Chrome/87.0.4280.88 Safari/537.36",WebKit,Chrome,87.0.4280.88,Windows,10.0
1,1,true,animation,21,79640,0.0-2.0-5.0,A1JJYY622DGE5L,65.681,306,1,306,1,"""","""","""","""","""","""","[{""stimulus"":""img/017_L_filler_absent.jpg"",""time"":322.7599999954691},{""stimulus"":""blank"",""time"":563.7299999943934},{""stimulus"":""img/017_L_filler_absent.jpg"",""time"":641.9699999969453},{""stimulus"":""blank"",""time"":882.9299999924842},{""stimulus"":""img/017_L_filler_present.jpg"",""time"":962.4599999951897},{""stimulus"":""blank"",""time"":1203.894999998738},{""stimulus"":""img/017_L_filler_present.jpg"",""time"":1281.634999992093},{""stimulus"":""blank"",""time"":1522.3449999903096},{""stimulus"":""img/017_L_filler_absent.jpg"",""time"":1602.5099999969825},{""stimulus"":""blank"",""time"":1843.5399999871152},{""stimulus"":""img/017_L_filler_absent.jpg"",""time"":1921.779999989667},{""stimulus"":""blank"",""time"":2163.139999989653},{""stimulus"":""img/017_L_filler_present.jpg"",""time"":2242.4899999896297},{""stimulus"":""blank"",""time"":2483.5149999998976},{""stimulus"":""img/017_L_filler_present.jpg"",""time"":2561.854999992647},{""stimulus"":""blank"",""time"":2802.43499999051},{""stimulus"":""img/017_L_filler_absent.jpg"",""time"":2881.904999987455}]","[{""key_press"":32,""rt"":2965.970000004745,""stimulus"":""img/017_L_filler_absent.jpg""}]",2966.1749999941094,017,L,"""","""","""","1,0",1,"""","""","""","""","""","""","""","""","""","""","""","""","""","""","""","2020-12-09 14:53:02",107.11.182.13,"Mozilla/5.0 (Windows NT 10.0; Win64; x64) AppleWebKit/537.36 (KHTML, like Gecko) Chrome/87.0.4280.88 Safari/537.36",WebKit,Chrome,87.0.4280.88,Windows,10.0
1,1,"""",image-button-response,22,82136,0.0-2.0-6.0,A1JJYY622DGE5L,65.681,306,1,306,1,"""","""","""","""","""","""","""","""",2474.934999991092,"detection grids/017L.jpg","""","""","""",1,"""","""",true,"""","""","""","""","""","""","""","""","""","""","""","""","""","""","2020-12-09 14:53:02",107.11.182.13,"Mozilla/5.0 (Windows NT 10.0; Win64; x64) AppleWebKit/537.36 (KHTML, like Gecko) Chrome/87.0.4280.88 Safari/537.36",WebKit,Chrome,87.0.4280.88,Windows,10.0
1,1,"""",image-button-response,23,83298,0.0-2.0-7.0,A1JJYY622DGE5L,65.681,306,1,306,1,"""","""","""","""","""","""","""","""",1152.5549999932991,"detection grids/017L.jpg","""","""","""",0,"""","""",true,"""","""","""","""","""","""","""","""","""","""","""","""","""","""","2020-12-09 14:53:02",107.11.182.13,"Mozilla/5.0 (Windows NT 10.0; Win64; x64) AppleWebKit/537.36 (KHTML, like Gecko) Chrome/87.0.4280.88 Safari/537.36",WebKit,Chrome,87.0.4280.88,Windows,10.0
1,1,"""",call-function,24,83305,0.0-2.0-0.1,A1JJYY622DGE5L,65.681,306,1,306,1,"[object Object]","""","""","""","""","""","""","""","""","""","""","""","""","""","""","""","""","""","""","""","""","""","""","""","""","""","""","""","""","""","""","2020-12-09 14:53:02",107.11.182.13,"Mozilla/5.0 (Windows NT 10.0; Win64; x64) AppleWebKit/537.36 (KHTML, like Gecko) Chrome/87.0.4280.88 Safari/537.36",WebKit,Chrome,87.0.4280.88,Windows,10.0
1,1,"""",html-keyboard-response,25,83318,0.0-2.0-1.1,A1JJYY622DGE5L,65.681,306,1,306,1,"[object Object]","""","""","""","""","""","""","""","""","""","""","""","""","""","""","""","""","""","""","""","""","""","""","""","""","""","""","""","""","""","""","2020-12-09 14:53:02",107.11.182.13,"Mozilla/5.0 (Windows NT 10.0; Win64; x64) AppleWebKit/537.36 (KHTML, like Gecko) Chrome/87.0.4280.88 Safari/537.36",WebKit,Chrome,87.0.4280.88,Windows,10.0
1,1,"""",html-keyboard-response,26,84318,0.0-2.0-2.1,A1JJYY622DGE5L,65.681,306,1,306,1,"""","""","""","""","""","""","""","""",null,"<p style=""font-size: 48px;"">ready?</p>","""",null,"""","""","""","""","""","""","""","""","""","""","""","""","""","""","""","""","""","""","""","2020-12-09 14:53:02",107.11.182.13,"Mozilla/5.0 (Windows NT 10.0; Win64; x64) AppleWebKit/537.36 (KHTML, like Gecko) Chrome/87.0.4280.88 Safari/537.36",WebKit,Chrome,87.0.4280.88,Windows,10.0
1,1,"""",html-keyboard-response,27,85322,0.0-2.0-3.1,A1JJYY622DGE5L,65.681,306,1,306,1,"""","""","""","""","""","""","""","""",null,"<p style=""font-size: 48px;"">ready?</p>","""",null,"""","""","""","""","""","""","""","""","""","""","""","""","""","""","""","""","""","""","""","2020-12-09 14:53:02",107.11.182.13,"Mozilla/5.0 (Windows NT 10.0; Win64; x64) AppleWebKit/537.36 (KHTML, like Gecko) Chrome/87.0.4280.88 Safari/537.36",WebKit,Chrome,87.0.4280.88,Windows,10.0
1,1,"""",html-keyboard-response,28,86332,0.0-2.0-4.1,A1JJYY622DGE5L,65.681,306,1,306,1,"""","""","""","""","""","""","""","""",null,"<p style=""font-size: 48px;"">ready?</p>","""",null,"""","""","""","""","""","""","""","""","""","""","""","""","""","""","""","""","""","""","""","2020-12-09 14:53:02",107.11.182.13,"Mozilla/5.0 (Windows NT 10.0; Win64; x64) AppleWebKit/537.36 (KHTML, like Gecko) Chrome/87.0.4280.88 Safari/537.36",WebKit,Chrome,87.0.4280.88,Windows,10.0
1,1,true,animation,29,98814,0.0-2.0-5.1,A1JJYY622DGE5L,65.681,306,1,306,1,"""","""","""","""","""","""","[{""stimulus"":""img/028_R_filler_absent.jpg"",""time"":322.0750000036787},{""stimulus"":""blank"",""time"":562.9350000090199},{""stimulus"":""img/028_R_filler_absent.jpg"",""time"":642.760000002454},{""stimulus"":""blank"",""time"":884.1350000002421},{""stimulus"":""img/028_R_filler_present.jpg"",""time"":961.9300000049407},{""stimulus"":""blank"",""time"":1202.6500000065425},{""stimulus"":""img/028_R_filler_present.jpg"",""time"":1282.3800000041956},{""stimulus"":""blank"",""time"":1523.1350000103703},{""stimulus"":""img/028_R_filler_absent.jpg"",""time"":1601.8049999984214},{""stimulus"":""blank"",""time"":1842.4749999976484},{""stimulus"":""img/028_R_filler_absent.jpg"",""time"":1922.5350000051549},{""stimulus"":""blank"",""time"":2163.9500000019325},{""stimulus"":""img/028_R_filler_present.jpg"",""time"":2241.7700000078185},{""stimulus"":""blank"",""time"":2482.654999999795},{""stimulus"":""img/028_R_filler_present.jpg"",""time"":2562.3950000008335},{""stimulus"":""blank"",""time"":2803.0200000066543},{""stimulus"":""img/028_R_filler_absent.jpg"",""time"":2882.500000006985},{""stimulus"":""blank"",""time"":3123.9500000083353},{""stimulus"":""img/028_R_filler_absent.jpg"",""time"":3202.4550000060117},{""stimulus"":""blank"",""time"":3443.460000009509},{""stimulus"":""img/028_R_filler_present.jpg"",""time"":3527.9650000011316},{""stimulus"":""blank"",""time"":3769.2950000055134},{""stimulus"":""img/028_R_filler_present.jpg"",""time"":3841.9100000028266},{""stimulus"":""blank"",""time"":4082.7550000103656},{""stimulus"":""img/028_R_filler_absent.jpg"",""time"":4162.309999999707},{""stimulus"":""blank"",""time"":4402.845000004163},{""stimulus"":""img/028_R_filler_absent.jpg"",""time"":4481.85999999987},{""stimulus"":""blank"",""time"":4723.550000009709},{""stimulus"":""img/028_R_filler_present.jpg"",""time"":4801.785000003292},{""stimulus"":""blank"",""time"":5051.325000007637},{""stimulus"":""img/028_R_filler_present.jpg"",""time"":5122.054999999818},{""stimulus"":""blank"",""time"":5363.965000011376},{""stimulus"":""img/028_R_filler_absent.jpg"",""time"":5442.22000001173},{""stimulus"":""blank"",""time"":5683.904999998049},{""stimulus"":""img/028_R_filler_absent.jpg"",""time"":5763.084999998682},{""stimulus"":""blank"",""time"":6003.884999998263},{""stimulus"":""img/028_R_filler_present.jpg"",""time"":6081.3600000110455},{""stimulus"":""blank"",""time"":6322.010000003502},{""stimulus"":""img/028_R_filler_present.jpg"",""time"":6412.909999999101},{""stimulus"":""blank"",""time"":6654.260000010254},{""stimulus"":""img/028_R_filler_absent.jpg"",""time"":6722.730000008596},{""stimulus"":""blank"",""time"":6968.925000008312},{""stimulus"":""img/028_R_filler_absent.jpg"",""time"":7041.015000009793},{""stimulus"":""blank"",""time"":7281.650000004447},{""stimulus"":""img/028_R_filler_present.jpg"",""time"":7362.2250000044005},{""stimulus"":""blank"",""time"":7603.889999998501},{""stimulus"":""img/028_R_filler_present.jpg"",""time"":7682.8349999996135},{""stimulus"":""blank"",""time"":7923.909999997704},{""stimulus"":""img/028_R_filler_absent.jpg"",""time"":8001.520000005257},{""stimulus"":""blank"",""time"":8242.389999999432},{""stimulus"":""img/028_R_filler_absent.jpg"",""time"":8322.550000011688},{""stimulus"":""blank"",""time"":8563.175000002957},{""stimulus"":""img/028_R_filler_present.jpg"",""time"":8642.275000005611},{""stimulus"":""blank"",""time"":8895.535000003292},{""stimulus"":""img/028_R_filler_present.jpg"",""time"":8962.055000010878},{""stimulus"":""blank"",""time"":9202.725000010105},{""stimulus"":""img/028_R_filler_absent.jpg"",""time"":9282.250000003842},{""stimulus"":""blank"",""time"":9523.535000000265},{""stimulus"":""img/028_R_filler_absent.jpg"",""time"":9602.790000004461},{""stimulus"":""blank"",""time"":9843.815000000177},{""stimulus"":""img/028_R_filler_present.jpg"",""time"":9922.370000000228},{""stimulus"":""blank"",""time"":10163.375000003725},{""stimulus"":""img/028_R_filler_present.jpg"",""time"":10242.040000011912},{""stimulus"":""blank"",""time"":10482.875000001513},{""stimulus"":""img/028_R_filler_absent.jpg"",""time"":10561.560000001919},{""stimulus"":""blank"",""time"":10802.510000008624},{""stimulus"":""img/028_R_filler_absent.jpg"",""time"":10881.770000007236},{""stimulus"":""blank"",""time"":11122.415000005276},{""stimulus"":""img/028_R_filler_present.jpg"",""time"":11201.170000000275},{""stimulus"":""blank"",""time"":11441.700000010314},{""stimulus"":""img/028_R_filler_present.jpg"",""time"":11521.525000003749},{""stimulus"":""blank"",""time"":11762.260000003153},{""stimulus"":""img/028_R_filler_absent.jpg"",""time"":11841.585000001942},{""stimulus"":""blank"",""time"":12082.355000005919},{""stimulus"":""img/028_R_filler_absent.jpg"",""time"":12161.365000007208},{""stimulus"":""blank"",""time"":12402.30000000156}]","[{""key_press"":32,""rt"":12478.824999998324,""stimulus"":""blank""}]",12479.010000010021,028,R,"""","""","""","3,2",2,"""","""","""","""","""","""","""","""","""","""","""","""","""","""","""","2020-12-09 14:53:02",107.11.182.13,"Mozilla/5.0 (Windows NT 10.0; Win64; x64) AppleWebKit/537.36 (KHTML, like Gecko) Chrome/87.0.4280.88 Safari/537.36",WebKit,Chrome,87.0.4280.88,Windows,10.0
1,1,"""",image-button-response,30,101700,0.0-2.0-6.1,A1JJYY622DGE5L,65.681,306,1,306,1,"""","""","""","""","""","""","""","""",2853.354999999283,"detection grids/028R.jpg","""","""","""",3,"""","""",true,"""","""","""","""","""","""","""","""","""","""","""","""","""","""","2020-12-09 14:53:02",107.11.182.13,"Mozilla/5.0 (Windows NT 10.0; Win64; x64) AppleWebKit/537.36 (KHTML, like Gecko) Chrome/87.0.4280.88 Safari/537.36",WebKit,Chrome,87.0.4280.88,Windows,10.0
1,1,"""",image-button-response,31,102489,0.0-2.0-7.1,A1JJYY622DGE5L,65.681,306,1,306,1,"""","""","""","""","""","""","""","""",786.2799999857089,"detection grids/028R.jpg","""","""","""",2,"""","""",true,"""","""","""","""","""","""","""","""","""","""","""","""","""","""","2020-12-09 14:53:02",107.11.182.13,"Mozilla/5.0 (Windows NT 10.0; Win64; x64) AppleWebKit/537.36 (KHTML, like Gecko) Chrome/87.0.4280.88 Safari/537.36",WebKit,Chrome,87.0.4280.88,Windows,10.0
1,1,"""",call-function,32,102498,0.0-2.0-0.2,A1JJYY622DGE5L,65.681,306,1,306,1,"[object Object]","""","""","""","""","""","""","""","""","""","""","""","""","""","""","""","""","""","""","""","""","""","""","""","""","""","""","""","""","""","""","2020-12-09 14:53:02",107.11.182.13,"Mozilla/5.0 (Windows NT 10.0; Win64; x64) AppleWebKit/537.36 (KHTML, like Gecko) Chrome/87.0.4280.88 Safari/537.36",WebKit,Chrome,87.0.4280.88,Windows,10.0
1,1,"""",html-keyboard-response,33,102507,0.0-2.0-1.2,A1JJYY622DGE5L,65.681,306,1,306,1,"[object Object]","""","""","""","""","""","""","""","""","""","""","""","""","""","""","""","""","""","""","""","""","""","""","""","""","""","""","""","""","""","""","2020-12-09 14:53:02",107.11.182.13,"Mozilla/5.0 (Windows NT 10.0; Win64; x64) AppleWebKit/537.36 (KHTML, like Gecko) Chrome/87.0.4280.88 Safari/537.36",WebKit,Chrome,87.0.4280.88,Windows,10.0
1,1,"""",html-keyboard-response,34,103509,0.0-2.0-2.2,A1JJYY622DGE5L,65.681,306,1,306,1,"""","""","""","""","""","""","""","""",null,"<p style=""font-size: 48px;"">ready?</p>","""",null,"""","""","""","""","""","""","""","""","""","""","""","""","""","""","""","""","""","""","""","2020-12-09 14:53:02",107.11.182.13,"Mozilla/5.0 (Windows NT 10.0; Win64; x64) AppleWebKit/537.36 (KHTML, like Gecko) Chrome/87.0.4280.88 Safari/537.36",WebKit,Chrome,87.0.4280.88,Windows,10.0
1,1,"""",html-keyboard-response,35,104510,0.0-2.0-3.2,A1JJYY622DGE5L,65.681,306,1,306,1,"""","""","""","""","""","""","""","""",null,"<p style=""font-size: 48px;"">ready?</p>","""",null,"""","""","""","""","""","""","""","""","""","""","""","""","""","""","""","""","""","""","""","2020-12-09 14:53:02",107.11.182.13,"Mozilla/5.0 (Windows NT 10.0; Win64; x64) AppleWebKit/537.36 (KHTML, like Gecko) Chrome/87.0.4280.88 Safari/537.36",WebKit,Chrome,87.0.4280.88,Windows,10.0
1,1,"""",html-keyboard-response,36,105513,0.0-2.0-4.2,A1JJYY622DGE5L,65.681,306,1,306,1,"""","""","""","""","""","""","""","""",null,"<p style=""font-size: 48px;"">ready?</p>","""",null,"""","""","""","""","""","""","""","""","""","""","""","""","""","""","""","""","""","""","""","2020-12-09 14:53:02",107.11.182.13,"Mozilla/5.0 (Windows NT 10.0; Win64; x64) AppleWebKit/537.36 (KHTML, like Gecko) Chrome/87.0.4280.88 Safari/537.36",WebKit,Chrome,87.0.4280.88,Windows,10.0
1,1,true,animation,37,118338,0.0-2.0-5.2,A1JJYY622DGE5L,65.681,306,1,306,1,"""","""","""","""","""","""","[{""stimulus"":""img/020_L_filler_absent.jpg"",""time"":322.43499999458436},{""stimulus"":""blank"",""time"":562.9800000024261},{""stimulus"":""img/020_L_filler_absent.jpg"",""time"":642.1799999952782},{""stimulus"":""blank"",""time"":889.0899999969406},{""stimulus"":""img/020_L_filler_present.jpg"",""time"":961.0450000036508},{""stimulus"":""blank"",""time"":1202.369999999064},{""stimulus"":""img/020_L_filler_present.jpg"",""time"":1281.3199999945937},{""stimulus"":""blank"",""time"":1522.0899999985704},{""stimulus"":""img/020_L_filler_absent.jpg"",""time"":1601.5650000044843},{""stimulus"":""blank"",""time"":1843.0550000048243},{""stimulus"":""img/020_L_filler_absent.jpg"",""time"":1921.6750000050524},{""stimulus"":""blank"",""time"":2162.339999995311},{""stimulus"":""img/020_L_filler_present.jpg"",""time"":2241.4299999945797},{""stimulus"":""blank"",""time"":2482.380000001285},{""stimulus"":""img/020_L_filler_present.jpg"",""time"":2562.1399999945424},{""stimulus"":""blank"",""time"":2803.650000001653},{""stimulus"":""img/020_L_filler_absent.jpg"",""time"":2882.964999997057},{""stimulus"":""blank"",""time"":3123.6899999930756},{""stimulus"":""img/020_L_filler_absent.jpg"",""time"":3202.9599999950733},{""stimulus"":""blank"",""time"":3445.3450000000885},{""stimulus"":""img/020_L_filler_present.jpg"",""time"":3522.2050000011222},{""stimulus"":""blank"",""time"":3762.6349999918602},{""stimulus"":""img/020_L_filler_present.jpg"",""time"":3841.7849999968894},{""stimulus"":""blank"",""time"":4084.0749999915715},{""stimulus"":""img/020_L_filler_absent.jpg"",""time"":4161.810000005062},{""stimulus"":""blank"",""time"":4403.135000000475},{""stimulus"":""img/020_L_filler_absent.jpg"",""time"":4481.769999998505},{""stimulus"":""blank"",""time"":4723.089999999502},{""stimulus"":""img/020_L_filler_present.jpg"",""time"":4801.504999995814},{""stimulus"":""blank"",""time"":5041.9200000033015},{""stimulus"":""img/020_L_filler_present.jpg"",""time"":5121.505000002799},{""stimulus"":""blank"",""time"":5362.729999993462},{""stimulus"":""img/020_L_filler_absent.jpg"",""time"":5441.454999992857},{""stimulus"":""blank"",""time"":5682.76500000502},{""stimulus"":""img/020_L_filler_absent.jpg"",""time"":5761.734999992768},{""stimulus"":""blank"",""time"":6003.114999999525},{""stimulus"":""img/020_L_filler_present.jpg"",""time"":6082.049999997253},{""stimulus"":""blank"",""time"":6323.069999998552},{""stimulus"":""img/020_L_filler_present.jpg"",""time"":6401.194999998552},{""stimulus"":""blank"",""time"":6642.5449999951525},{""stimulus"":""img/020_L_filler_absent.jpg"",""time"":6721.239999998943},{""stimulus"":""blank"",""time"":6962.2549999912735},{""stimulus"":""img/020_L_filler_absent.jpg"",""time"":7042.0650000014575},{""stimulus"":""blank"",""time"":7284.090000001015},{""stimulus"":""img/020_L_filler_present.jpg"",""time"":7362.399999998161},{""stimulus"":""blank"",""time"":7603.269999992335},{""stimulus"":""img/020_L_filler_present.jpg"",""time"":7681.559999997262},{""stimulus"":""blank"",""time"":7922.464999996009},{""stimulus"":""img/020_L_filler_absent.jpg"",""time"":8001.860000003944},{""stimulus"":""blank"",""time"":8243.224999998347},{""stimulus"":""img/020_L_filler_absent.jpg"",""time"":8322.604999993928},{""stimulus"":""blank"",""time"":8563.135000003967},{""stimulus"":""img/020_L_filler_present.jpg"",""time"":8641.609999991488},{""stimulus"":""blank"",""time"":8883.115000004182},{""stimulus"":""img/020_L_filler_present.jpg"",""time"":8961.04500000365},{""stimulus"":""blank"",""time"":9201.594999991357},{""stimulus"":""img/020_L_filler_absent.jpg"",""time"":9281.889999998384},{""stimulus"":""blank"",""time"":9522.36499999708},{""stimulus"":""img/020_L_filler_absent.jpg"",""time"":9601.014999992913},{""stimulus"":""blank"",""time"":9842.004999998608},{""stimulus"":""img/020_L_filler_present.jpg"",""time"":9921.075000005658},{""stimulus"":""blank"",""time"":10161.999999996624},{""stimulus"":""img/020_L_filler_present.jpg"",""time"":10242.400000002817},{""stimulus"":""blank"",""time"":10483.435000001919},{""stimulus"":""img/020_L_filler_absent.jpg"",""time"":10561.91000000399},{""stimulus"":""blank"",""time"":10803.549999996903},{""stimulus"":""img/020_L_filler_absent.jpg"",""time"":10882.364999997662},{""stimulus"":""blank"",""time"":11123.22999999742},{""stimulus"":""img/020_L_filler_present.jpg"",""time"":11202.499999999418},{""stimulus"":""blank"",""time"":11451.560000001336},{""stimulus"":""img/020_L_filler_present.jpg"",""time"":11521.380000005593},{""stimulus"":""blank"",""time"":11762.705000001006},{""stimulus"":""img/020_L_filler_absent.jpg"",""time"":11841.209999998682},{""stimulus"":""blank"",""time"":12082.01499999268},{""stimulus"":""img/020_L_filler_absent.jpg"",""time"":12161.61500000453},{""stimulus"":""blank"",""time"":12403.154999992694},{""stimulus"":""img/020_L_filler_present.jpg"",""time"":12482.969999997295},{""stimulus"":""blank"",""time"":12723.434999992605},{""stimulus"":""img/020_L_filler_present.jpg"",""time"":12801.819999993313}]","[{""key_press"":32,""rt"":12821.18499999342,""stimulus"":""img/020_L_filler_present.jpg""}]",12821.450000003097,020,L,"""","""","""","0,2",3,"""","""","""","""","""","""","""","""","""","""","""","""","""","""","""","2020-12-09 14:53:02",107.11.182.13,"Mozilla/5.0 (Windows NT 10.0; Win64; x64) AppleWebKit/537.36 (KHTML, like Gecko) Chrome/87.0.4280.88 Safari/537.36",WebKit,Chrome,87.0.4280.88,Windows,10.0
1,1,"""",image-button-response,38,120919,0.0-2.0-6.2,A1JJYY622DGE5L,65.681,306,1,306,1,"""","""","""","""","""","""","""","""",2549.1650000039954,"detection grids/020L.jpg","""","""","""",0,"""","""",true,"""","""","""","""","""","""","""","""","""","""","""","""","""","""","2020-12-09 14:53:02",107.11.182.13,"Mozilla/5.0 (Windows NT 10.0; Win64; x64) AppleWebKit/537.36 (KHTML, like Gecko) Chrome/87.0.4280.88 Safari/537.36",WebKit,Chrome,87.0.4280.88,Windows,10.0
1,1,"""",image-button-response,39,122118,0.0-2.0-7.2,A1JJYY622DGE5L,65.681,306,1,306,1,"""","""","""","""","""","""","""","""",1195.415000009234,"detection grids/020L.jpg","""","""","""",2,"""","""",true,"""","""","""","""","""","""","""","""","""","""","""","""","""","""","2020-12-09 14:53:02",107.11.182.13,"Mozilla/5.0 (Windows NT 10.0; Win64; x64) AppleWebKit/537.36 (KHTML, like Gecko) Chrome/87.0.4280.88 Safari/537.36",WebKit,Chrome,87.0.4280.88,Windows,10.0
1,1,"""",call-function,40,122132,0.0-2.0-0.3,A1JJYY622DGE5L,65.681,306,1,306,1,"[object Object]","""","""","""","""","""","""","""","""","""","""","""","""","""","""","""","""","""","""","""","""","""","""","""","""","""","""","""","""","""","""","2020-12-09 14:53:02",107.11.182.13,"Mozilla/5.0 (Windows NT 10.0; Win64; x64) AppleWebKit/537.36 (KHTML, like Gecko) Chrome/87.0.4280.88 Safari/537.36",WebKit,Chrome,87.0.4280.88,Windows,10.0
1,1,"""",html-keyboard-response,41,122145,0.0-2.0-1.3,A1JJYY622DGE5L,65.681,306,1,306,1,"[object Object]","""","""","""","""","""","""","""","""","""","""","""","""","""","""","""","""","""","""","""","""","""","""","""","""","""","""","""","""","""","""","2020-12-09 14:53:02",107.11.182.13,"Mozilla/5.0 (Windows NT 10.0; Win64; x64) AppleWebKit/537.36 (KHTML, like Gecko) Chrome/87.0.4280.88 Safari/537.36",WebKit,Chrome,87.0.4280.88,Windows,10.0
1,1,"""",html-keyboard-response,42,123147,0.0-2.0-2.3,A1JJYY622DGE5L,65.681,306,1,306,1,"""","""","""","""","""","""","""","""",null,"<p style=""font-size: 48px;"">ready?</p>","""",null,"""","""","""","""","""","""","""","""","""","""","""","""","""","""","""","""","""","""","""","2020-12-09 14:53:02",107.11.182.13,"Mozilla/5.0 (Windows NT 10.0; Win64; x64) AppleWebKit/537.36 (KHTML, like Gecko) Chrome/87.0.4280.88 Safari/537.36",WebKit,Chrome,87.0.4280.88,Windows,10.0
1,1,"""",html-keyboard-response,43,124151,0.0-2.0-3.3,A1JJYY622DGE5L,65.681,306,1,306,1,"""","""","""","""","""","""","""","""",null,"<p style=""font-size: 48px;"">ready?</p>","""",null,"""","""","""","""","""","""","""","""","""","""","""","""","""","""","""","""","""","""","""","2020-12-09 14:53:02",107.11.182.13,"Mozilla/5.0 (Windows NT 10.0; Win64; x64) AppleWebKit/537.36 (KHTML, like Gecko) Chrome/87.0.4280.88 Safari/537.36",WebKit,Chrome,87.0.4280.88,Windows,10.0
1,1,"""",html-keyboard-response,44,125154,0.0-2.0-4.3,A1JJYY622DGE5L,65.681,306,1,306,1,"""","""","""","""","""","""","""","""",null,"<p style=""font-size: 48px;"">ready?</p>","""",null,"""","""","""","""","""","""","""","""","""","""","""","""","""","""","""","""","""","""","""","2020-12-09 14:53:02",107.11.182.13,"Mozilla/5.0 (Windows NT 10.0; Win64; x64) AppleWebKit/537.36 (KHTML, like Gecko) Chrome/87.0.4280.88 Safari/537.36",WebKit,Chrome,87.0.4280.88,Windows,10.0
1,1,true,animation,45,136268,0.0-2.0-5.3,A1JJYY622DGE5L,65.681,306,1,306,1,"""","""","""","""","""","""","[{""stimulus"":""img/01_R_filler_absent.jpg"",""time"":322.4049999989802},{""stimulus"":""blank"",""time"":563.0650000093738},{""stimulus"":""img/01_R_filler_absent.jpg"",""time"":642.149999999674},{""stimulus"":""blank"",""time"":882.9700000060257},{""stimulus"":""img/01_R_filler_present.jpg"",""time"":962.4800000019604},{""stimulus"":""blank"",""time"":1203.6099999968428},{""stimulus"":""img/01_R_filler_present.jpg"",""time"":1282.0349999965401},{""stimulus"":""blank"",""time"":1523.1650000059744},{""stimulus"":""img/01_R_filler_absent.jpg"",""time"":1602.2850000008475},{""stimulus"":""blank"",""time"":1843.6450000008335},{""stimulus"":""img/01_R_filler_absent.jpg"",""time"":1921.490000007907},{""stimulus"":""blank"",""time"":2162.1000000013737},{""stimulus"":""img/01_R_filler_present.jpg"",""time"":2242.3649999982445},{""stimulus"":""blank"",""time"":2483.350000009523},{""stimulus"":""img/01_R_filler_present.jpg"",""time"":2562.1850000025006},{""stimulus"":""blank"",""time"":2803.509999997914},{""stimulus"":""img/01_R_filler_absent.jpg"",""time"":2881.554999999935},{""stimulus"":""blank"",""time"":3122.510000001057},{""stimulus"":""img/01_R_filler_absent.jpg"",""time"":3201.5400000091176},{""stimulus"":""blank"",""time"":3442.330000005313},{""stimulus"":""img/01_R_filler_present.jpg"",""time"":3521.489999999176},{""stimulus"":""blank"",""time"":3762.0200000092154},{""stimulus"":""img/01_R_filler_present.jpg"",""time"":3841.9300000095973},{""stimulus"":""blank"",""time"":4083.39500000875},{""stimulus"":""img/01_R_filler_absent.jpg"",""time"":4162.335000000894},{""stimulus"":""blank"",""time"":4402.840000009746},{""stimulus"":""img/01_R_filler_absent.jpg"",""time"":4482.845000005909},{""stimulus"":""blank"",""time"":4723.850000009406},{""stimulus"":""img/01_R_filler_present.jpg"",""time"":4801.894999996875},{""stimulus"":""blank"",""time"":5043.20000000007},{""stimulus"":""img/01_R_filler_present.jpg"",""time"":5122.7599999983795},{""stimulus"":""blank"",""time"":5363.4299999976065},{""stimulus"":""img/01_R_filler_absent.jpg"",""time"":5443.820000000414},{""stimulus"":""blank"",""time"":5685.485000009066},{""stimulus"":""img/01_R_filler_absent.jpg"",""time"":5762.105000001611},{""stimulus"":""blank"",""time"":6003.284999998868},{""stimulus"":""img/01_R_filler_present.jpg"",""time"":6081.325000006473},{""stimulus"":""blank"",""time"":6322.975000002771},{""stimulus"":""img/01_R_filler_present.jpg"",""time"":6401.8749999959255},{""stimulus"":""blank"",""time"":6642.39500000258},{""stimulus"":""img/01_R_filler_absent.jpg"",""time"":6721.625000005588},{""stimulus"":""blank"",""time"":6962.750000006054},{""stimulus"":""img/01_R_filler_absent.jpg"",""time"":7041.515000004438},{""stimulus"":""blank"",""time"":7282.529999996768},{""stimulus"":""img/01_R_filler_present.jpg"",""time"":7362.3700000025565},{""stimulus"":""blank"",""time"":7603.090000004158},{""stimulus"":""img/01_R_filler_present.jpg"",""time"":7682.400000005146},{""stimulus"":""blank"",""time"":7924.175000007381},{""stimulus"":""img/01_R_filler_absent.jpg"",""time"":8002.164999998058},{""stimulus"":""blank"",""time"":8243.705000000773},{""stimulus"":""img/01_R_filler_absent.jpg"",""time"":8322.20999999845},{""stimulus"":""blank"",""time"":8563.745000006747},{""stimulus"":""img/01_R_filler_present.jpg"",""time"":8642.35500000359},{""stimulus"":""blank"",""time"":8882.92000000365},{""stimulus"":""img/01_R_filler_present.jpg"",""time"":8962.444999997388},{""stimulus"":""blank"",""time"":9203.414999996312},{""stimulus"":""img/01_R_filler_absent.jpg"",""time"":9282.294999997248},{""stimulus"":""blank"",""time"":9522.785000008298},{""stimulus"":""img/01_R_filler_absent.jpg"",""time"":9602.095000009285},{""stimulus"":""blank"",""time"":9842.585000005784},{""stimulus"":""img/01_R_filler_present.jpg"",""time"":9922.115000008489},{""stimulus"":""blank"",""time"":10162.735000005341},{""stimulus"":""img/01_R_filler_present.jpg"",""time"":10242.420000009588},{""stimulus"":""blank"",""time"":10483.460000003106},{""stimulus"":""img/01_R_filler_absent.jpg"",""time"":10562.36500000523},{""stimulus"":""blank"",""time"":10802.980000007665},{""stimulus"":""img/01_R_filler_absent.jpg"",""time"":10882.525000008172}]","[{""key_press"":32,""rt"":11111.344999997527,""stimulus"":""img/01_R_filler_absent.jpg""}]",11111.499999999069,01,R,"""","""","""","2,1",4,"""","""","""","""","""","""","""","""","""","""","""","""","""","""","""","2020-12-09 14:53:02",107.11.182.13,"Mozilla/5.0 (Windows NT 10.0; Win64; x64) AppleWebKit/537.36 (KHTML, like Gecko) Chrome/87.0.4280.88 Safari/537.36",WebKit,Chrome,87.0.4280.88,Windows,10.0
1,1,"""",image-button-response,46,138783,0.0-2.0-6.3,A1JJYY622DGE5L,65.681,306,1,306,1,"""","""","""","""","""","""","""","""",2501.685000010184,"detection grids/01R.jpg","""","""","""",2,"""","""",true,"""","""","""","""","""","""","""","""","""","""","""","""","""","""","2020-12-09 14:53:02",107.11.182.13,"Mozilla/5.0 (Windows NT 10.0; Win64; x64) AppleWebKit/537.36 (KHTML, like Gecko) Chrome/87.0.4280.88 Safari/537.36",WebKit,Chrome,87.0.4280.88,Windows,10.0
1,1,"""",image-button-response,47,139651,0.0-2.0-7.3,A1JJYY622DGE5L,65.681,306,1,306,1,"""","""","""","""","""","""","""","""",860.3750000038417,"detection grids/01R.jpg","""","""","""",1,"""","""",true,"""","""","""","""","""","""","""","""","""","""","""","""","""","""","2020-12-09 14:53:02",107.11.182.13,"Mozilla/5.0 (Windows NT 10.0; Win64; x64) AppleWebKit/537.36 (KHTML, like Gecko) Chrome/87.0.4280.88 Safari/537.36",WebKit,Chrome,87.0.4280.88,Windows,10.0
1,1,"""",call-function,48,139657,0.0-2.0-0.4,A1JJYY622DGE5L,65.681,306,1,306,1,"[object Object]","""","""","""","""","""","""","""","""","""","""","""","""","""","""","""","""","""","""","""","""","""","""","""","""","""","""","""","""","""","""","2020-12-09 14:53:02",107.11.182.13,"Mozilla/5.0 (Windows NT 10.0; Win64; x64) AppleWebKit/537.36 (KHTML, like Gecko) Chrome/87.0.4280.88 Safari/537.36",WebKit,Chrome,87.0.4280.88,Windows,10.0
1,1,"""",html-keyboard-response,49,139671,0.0-2.0-1.4,A1JJYY622DGE5L,65.681,306,1,306,1,"[object Object]","""","""","""","""","""","""","""","""","""","""","""","""","""","""","""","""","""","""","""","""","""","""","""","""","""","""","""","""","""","""","2020-12-09 14:53:02",107.11.182.13,"Mozilla/5.0 (Windows NT 10.0; Win64; x64) AppleWebKit/537.36 (KHTML, like Gecko) Chrome/87.0.4280.88 Safari/537.36",WebKit,Chrome,87.0.4280.88,Windows,10.0
1,1,"""",html-keyboard-response,50,140672,0.0-2.0-2.4,A1JJYY622DGE5L,65.681,306,1,306,1,"""","""","""","""","""","""","""","""",null,"<p style=""font-size: 48px;"">ready?</p>","""",null,"""","""","""","""","""","""","""","""","""","""","""","""","""","""","""","""","""","""","""","2020-12-09 14:53:02",107.11.182.13,"Mozilla/5.0 (Windows NT 10.0; Win64; x64) AppleWebKit/537.36 (KHTML, like Gecko) Chrome/87.0.4280.88 Safari/537.36",WebKit,Chrome,87.0.4280.88,Windows,10.0
1,1,"""",html-keyboard-response,51,141686,0.0-2.0-3.4,A1JJYY622DGE5L,65.681,306,1,306,1,"""","""","""","""","""","""","""","""",null,"<p style=""font-size: 48px;"">ready?</p>","""",null,"""","""","""","""","""","""","""","""","""","""","""","""","""","""","""","""","""","""","""","2020-12-09 14:53:02",107.11.182.13,"Mozilla/5.0 (Windows NT 10.0; Win64; x64) AppleWebKit/537.36 (KHTML, like Gecko) Chrome/87.0.4280.88 Safari/537.36",WebKit,Chrome,87.0.4280.88,Windows,10.0
1,1,"""",html-keyboard-response,52,142689,0.0-2.0-4.4,A1JJYY622DGE5L,65.681,306,1,306,1,"""","""","""","""","""","""","""","""",null,"<p style=""font-size: 48px;"">ready?</p>","""",null,"""","""","""","""","""","""","""","""","""","""","""","""","""","""","""","""","""","""","""","2020-12-09 14:53:02",107.11.182.13,"Mozilla/5.0 (Windows NT 10.0; Win64; x64) AppleWebKit/537.36 (KHTML, like Gecko) Chrome/87.0.4280.88 Safari/537.36",WebKit,Chrome,87.0.4280.88,Windows,10.0
1,1,true,animation,53,155248,0.0-2.0-5.4,A1JJYY622DGE5L,65.681,306,1,306,1,"""","""","""","""","""","""","[{""stimulus"":""img/022_L_filler_absent.jpg"",""time"":321.93000000552274},{""stimulus"":""blank"",""time"":563.3499999967171},{""stimulus"":""img/022_L_filler_absent.jpg"",""time"":642.0650000072783},{""stimulus"":""blank"",""time"":882.8000000066822},{""stimulus"":""img/022_L_filler_present.jpg"",""time"":962.0399999985239},{""stimulus"":""blank"",""time"":1202.900000003865},{""stimulus"":""img/022_L_filler_present.jpg"",""time"":1281.4849999995204},{""stimulus"":""blank"",""time"":1521.9950000027893},{""stimulus"":""img/022_L_filler_absent.jpg"",""time"":1602.2400000074413},{""stimulus"":""blank"",""time"":1843.0700000026263},{""stimulus"":""img/022_L_filler_absent.jpg"",""time"":1922.0100000093225},{""stimulus"":""blank"",""time"":2162.5800000038},{""stimulus"":""img/022_L_filler_present.jpg"",""time"":2241.055000005872},{""stimulus"":""blank"",""time"":2482.2300000087125},{""stimulus"":""img/022_L_filler_present.jpg"",""time"":2561.8950000061886},{""stimulus"":""blank"",""time"":2802.8049999993527},{""stimulus"":""img/022_L_filler_absent.jpg"",""time"":2881.9099999964237},{""stimulus"":""blank"",""time"":3123.380000004545},{""stimulus"":""img/022_L_filler_absent.jpg"",""time"":3202.434999999241},{""stimulus"":""blank"",""time"":3443.859999999404},{""stimulus"":""img/022_L_filler_present.jpg"",""time"":3521.950000009383},{""stimulus"":""blank"",""time"":3762.8400000103284},{""stimulus"":""img/022_L_filler_present.jpg"",""time"":3842.1349999989616},{""stimulus"":""blank"",""time"":4083.8999999978114},{""stimulus"":""img/022_L_filler_absent.jpg"",""time"":4161.770000006072},{""stimulus"":""blank"",""time"":4402.390000002924},{""stimulus"":""img/022_L_filler_absent.jpg"",""time"":4482.19500000414},{""stimulus"":""blank"",""time"":4723.475000006147},{""stimulus"":""img/022_L_filler_present.jpg"",""time"":4801.875000004657},{""stimulus"":""blank"",""time"":5042.605000009644},{""stimulus"":""img/022_L_filler_present.jpg"",""time"":5122.090000004391},{""stimulus"":""blank"",""time"":5362.705000006827},{""stimulus"":""img/022_L_filler_absent.jpg"",""time"":5441.72499999695},{""stimulus"":""blank"",""time"":5682.524999996531},{""stimulus"":""img/022_L_filler_absent.jpg"",""time"":5761.670000007143},{""stimulus"":""blank"",""time"":6003.255000003264},{""stimulus"":""img/022_L_filler_present.jpg"",""time"":6082.1300000097835},{""stimulus"":""blank"",""time"":6323.004999998375},{""stimulus"":""img/022_L_filler_present.jpg"",""time"":6401.865000007092},{""stimulus"":""blank"",""time"":6643.230000001495},{""stimulus"":""img/022_L_filler_absent.jpg"",""time"":6722.300000008545},{""stimulus"":""blank"",""time"":6963.310000006459},{""stimulus"":""img/022_L_filler_absent.jpg"",""time"":7041.855000003125},{""stimulus"":""blank"",""time"":7282.9750000091735},{""stimulus"":""img/022_L_filler_present.jpg"",""time"":7361.445000002277},{""stimulus"":""blank"",""time"":7602.190000005066},{""stimulus"":""img/022_L_filler_present.jpg"",""time"":7682.505000004312},{""stimulus"":""blank"",""time"":7923.049999997602},{""stimulus"":""img/022_L_filler_absent.jpg"",""time"":8002.370000001974},{""stimulus"":""blank"",""time"":8243.815000008908},{""stimulus"":""img/022_L_filler_absent.jpg"",""time"":8321.95500000671},{""stimulus"":""blank"",""time"":8563.464999999269},{""stimulus"":""img/022_L_filler_present.jpg"",""time"":8641.564999998081},{""stimulus"":""blank"",""time"":8883.199999996577},{""stimulus"":""img/022_L_filler_present.jpg"",""time"":8962.140000003274},{""stimulus"":""blank"",""time"":9202.425000010408},{""stimulus"":""img/022_L_filler_absent.jpg"",""time"":9286.894999997457},{""stimulus"":""blank"",""time"":9530.870000002324},{""stimulus"":""img/022_L_filler_absent.jpg"",""time"":9601.470000008703},{""stimulus"":""blank"",""time"":9843.135000002803},{""stimulus"":""img/022_L_filler_present.jpg"",""time"":9924.075000002631},{""stimulus"":""blank"",""time"":10165.485000004992},{""stimulus"":""img/022_L_filler_present.jpg"",""time"":10243.690000002971},{""stimulus"":""blank"",""time"":10484.599999996135},{""stimulus"":""img/022_L_filler_absent.jpg"",""time"":10561.979999998584},{""stimulus"":""blank"",""time"":10803.07000000903},{""stimulus"":""img/022_L_filler_absent.jpg"",""time"":10881.040000007488},{""stimulus"":""blank"",""time"":11122.895000007702},{""stimulus"":""img/022_L_filler_present.jpg"",""time"":11202.160000000731},{""stimulus"":""blank"",""time"":11443.155000000843},{""stimulus"":""img/022_L_filler_present.jpg"",""time"":11522.310000000289},{""stimulus"":""blank"",""time"":11763.655000002473},{""stimulus"":""img/022_L_filler_absent.jpg"",""time"":11841.82500001043},{""stimulus"":""blank"",""time"":12083.150000005844},{""stimulus"":""img/022_L_filler_absent.jpg"",""time"":12162.150000003749},{""stimulus"":""blank"",""time"":12403.12499999709},{""stimulus"":""img/022_L_filler_present.jpg"",""time"":12481.92000000563}]","[{""key_press"":32,""rt"":12554.994999998598,""stimulus"":""img/022_L_filler_present.jpg""}]",12555.220000009285,022,L,"""","""","""","0,2",5,"""","""","""","""","""","""","""","""","""","""","""","""","""","""","""","2020-12-09 14:53:02",107.11.182.13,"Mozilla/5.0 (Windows NT 10.0; Win64; x64) AppleWebKit/537.36 (KHTML, like Gecko) Chrome/87.0.4280.88 Safari/537.36",WebKit,Chrome,87.0.4280.88,Windows,10.0
1,1,"""",image-button-response,54,157769,0.0-2.0-6.4,A1JJYY622DGE5L,65.681,306,1,306,1,"""","""","""","""","""","""","""","""",2493.1800000049407,"detection grids/022L.jpg","""","""","""",0,"""","""",true,"""","""","""","""","""","""","""","""","""","""","""","""","""","""","2020-12-09 14:53:02",107.11.182.13,"Mozilla/5.0 (Windows NT 10.0; Win64; x64) AppleWebKit/537.36 (KHTML, like Gecko) Chrome/87.0.4280.88 Safari/537.36",WebKit,Chrome,87.0.4280.88,Windows,10.0
1,1,"""",image-button-response,55,158730,0.0-2.0-7.4,A1JJYY622DGE5L,65.681,306,1,306,1,"""","""","""","""","""","""","""","""",957.9799999919487,"detection grids/022L.jpg","""","""","""",2,"""","""",true,"""","""","""","""","""","""","""","""","""","""","""","""","""","""","2020-12-09 14:53:02",107.11.182.13,"Mozilla/5.0 (Windows NT 10.0; Win64; x64) AppleWebKit/537.36 (KHTML, like Gecko) Chrome/87.0.4280.88 Safari/537.36",WebKit,Chrome,87.0.4280.88,Windows,10.0
1,1,"""",call-function,56,158740,0.0-2.0-0.5,A1JJYY622DGE5L,65.681,306,1,306,1,"[object Object]","""","""","""","""","""","""","""","""","""","""","""","""","""","""","""","""","""","""","""","""","""","""","""","""","""","""","""","""","""","""","2020-12-09 14:53:02",107.11.182.13,"Mozilla/5.0 (Windows NT 10.0; Win64; x64) AppleWebKit/537.36 (KHTML, like Gecko) Chrome/87.0.4280.88 Safari/537.36",WebKit,Chrome,87.0.4280.88,Windows,10.0
1,1,"""",html-keyboard-response,57,158749,0.0-2.0-1.5,A1JJYY622DGE5L,65.681,306,1,306,1,"[object Object]","""","""","""","""","""","""","""","""","""","""","""","""","""","""","""","""","""","""","""","""","""","""","""","""","""","""","""","""","""","""","2020-12-09 14:53:02",107.11.182.13,"Mozilla/5.0 (Windows NT 10.0; Win64; x64) AppleWebKit/537.36 (KHTML, like Gecko) Chrome/87.0.4280.88 Safari/537.36",WebKit,Chrome,87.0.4280.88,Windows,10.0
1,1,"""",html-keyboard-response,58,159760,0.0-2.0-2.5,A1JJYY622DGE5L,65.681,306,1,306,1,"""","""","""","""","""","""","""","""",null,"<p style=""font-size: 48px;"">ready?</p>","""",null,"""","""","""","""","""","""","""","""","""","""","""","""","""","""","""","""","""","""","""","2020-12-09 14:53:02",107.11.182.13,"Mozilla/5.0 (Windows NT 10.0; Win64; x64) AppleWebKit/537.36 (KHTML, like Gecko) Chrome/87.0.4280.88 Safari/537.36",WebKit,Chrome,87.0.4280.88,Windows,10.0
1,1,"""",html-keyboard-response,59,160763,0.0-2.0-3.5,A1JJYY622DGE5L,65.681,306,1,306,1,"""","""","""","""","""","""","""","""",null,"<p style=""font-size: 48px;"">ready?</p>","""",null,"""","""","""","""","""","""","""","""","""","""","""","""","""","""","""","""","""","""","""","2020-12-09 14:53:02",107.11.182.13,"Mozilla/5.0 (Windows NT 10.0; Win64; x64) AppleWebKit/537.36 (KHTML, like Gecko) Chrome/87.0.4280.88 Safari/537.36",WebKit,Chrome,87.0.4280.88,Windows,10.0
1,1,"""",html-keyboard-response,60,161765,0.0-2.0-4.5,A1JJYY622DGE5L,65.681,306,1,306,1,"""","""","""","""","""","""","""","""",null,"<p style=""font-size: 48px;"">ready?</p>","""",null,"""","""","""","""","""","""","""","""","""","""","""","""","""","""","""","""","""","""","""","2020-12-09 14:53:02",107.11.182.13,"Mozilla/5.0 (Windows NT 10.0; Win64; x64) AppleWebKit/537.36 (KHTML, like Gecko) Chrome/87.0.4280.88 Safari/537.36",WebKit,Chrome,87.0.4280.88,Windows,10.0
1,1,true,animation,61,167835,0.0-2.0-5.5,A1JJYY622DGE5L,65.681,306,1,306,1,"""","""","""","""","""","""","[{""stimulus"":""img/023_L_filler_absent.jpg"",""time"":322.4749999935739},{""stimulus"":""blank"",""time"":563.9749999972992},{""stimulus"":""img/023_L_filler_absent.jpg"",""time"":641.9999999925494},{""stimulus"":""blank"",""time"":882.7549999987241},{""stimulus"":""img/023_L_filler_present.jpg"",""time"":962.3500000016065},{""stimulus"":""blank"",""time"":1202.9550000006566},{""stimulus"":""img/023_L_filler_present.jpg"",""time"":1282.8349999908824},{""stimulus"":""blank"",""time"":1524.7899999958463},{""stimulus"":""img/023_L_filler_absent.jpg"",""time"":1602.3999999888474},{""stimulus"":""blank"",""time"":1843.4199999901466},{""stimulus"":""img/023_L_filler_absent.jpg"",""time"":1922.179999994114},{""stimulus"":""blank"",""time"":2164.0449999977136},{""stimulus"":""img/023_L_filler_present.jpg"",""time"":2242.54999999539},{""stimulus"":""blank"",""time"":2483.299999992596},{""stimulus"":""img/023_L_filler_present.jpg"",""time"":2562.549999987823},{""stimulus"":""blank"",""time"":2803.509999997914},{""stimulus"":""img/023_L_filler_absent.jpg"",""time"":2882.484999994631},{""stimulus"":""blank"",""time"":3123.714999994263},{""stimulus"":""img/023_L_filler_absent.jpg"",""time"":3201.634999990347},{""stimulus"":""blank"",""time"":3443.0199999915203},{""stimulus"":""img/023_L_filler_present.jpg"",""time"":3522.689999997965},{""stimulus"":""blank"",""time"":3764.2499999928987},{""stimulus"":""img/023_L_filler_present.jpg"",""time"":3842.4599999998463},{""stimulus"":""blank"",""time"":4083.6599999893224},{""stimulus"":""img/023_L_filler_absent.jpg"",""time"":4161.489999998594},{""stimulus"":""blank"",""time"":4402.524999997695},{""stimulus"":""img/023_L_filler_absent.jpg"",""time"":4482.559999989462},{""stimulus"":""blank"",""time"":4724.719999998342},{""stimulus"":""img/023_L_filler_present.jpg"",""time"":4802.774999989197},{""stimulus"":""blank"",""time"":5043.74999999709},{""stimulus"":""img/023_L_filler_present.jpg"",""time"":5121.849999995902},{""stimulus"":""blank"",""time"":5362.8199999948265},{""stimulus"":""img/023_L_filler_absent.jpg"",""time"":5442.3099999985425},{""stimulus"":""blank"",""time"":5683.744999987539},{""stimulus"":""img/023_L_filler_absent.jpg"",""time"":5761.309999987134},{""stimulus"":""blank"",""time"":6003.234999996494}]","[{""key_press"":32,""rt"":6064.645000005839,""stimulus"":""blank""}]",6064.7400000016205,023,L,"""","""","""","1,2",6,"""","""","""","""","""","""","""","""","""","""","""","""","""","""","""","2020-12-09 14:53:02",107.11.182.13,"Mozilla/5.0 (Windows NT 10.0; Win64; x64) AppleWebKit/537.36 (KHTML, like Gecko) Chrome/87.0.4280.88 Safari/537.36",WebKit,Chrome,87.0.4280.88,Windows,10.0
1,1,"""",image-button-response,62,170776,0.0-2.0-6.5,A1JJYY622DGE5L,65.681,306,1,306,1,"""","""","""","""","""","""","""","""",2929.904999997234,"detection grids/023L.jpg","""","""","""",1,"""","""",true,"""","""","""","""","""","""","""","""","""","""","""","""","""","""","2020-12-09 14:53:02",107.11.182.13,"Mozilla/5.0 (Windows NT 10.0; Win64; x64) AppleWebKit/537.36 (KHTML, like Gecko) Chrome/87.0.4280.88 Safari/537.36",WebKit,Chrome,87.0.4280.88,Windows,10.0
1,1,"""",image-button-response,63,171536,0.0-2.0-7.5,A1JJYY622DGE5L,65.681,306,1,306,1,"""","""","""","""","""","""","""","""",743.7300000019604,"detection grids/023L.jpg","""","""","""",2,"""","""",true,"""","""","""","""","""","""","""","""","""","""","""","""","""","""","2020-12-09 14:53:02",107.11.182.13,"Mozilla/5.0 (Windows NT 10.0; Win64; x64) AppleWebKit/537.36 (KHTML, like Gecko) Chrome/87.0.4280.88 Safari/537.36",WebKit,Chrome,87.0.4280.88,Windows,10.0
1,1,"""",call-function,64,171544,0.0-2.0-0.6,A1JJYY622DGE5L,65.681,306,1,306,1,"[object Object]","""","""","""","""","""","""","""","""","""","""","""","""","""","""","""","""","""","""","""","""","""","""","""","""","""","""","""","""","""","""","2020-12-09 14:53:02",107.11.182.13,"Mozilla/5.0 (Windows NT 10.0; Win64; x64) AppleWebKit/537.36 (KHTML, like Gecko) Chrome/87.0.4280.88 Safari/537.36",WebKit,Chrome,87.0.4280.88,Windows,10.0
1,1,"""",html-keyboard-response,65,171557,0.0-2.0-1.6,A1JJYY622DGE5L,65.681,306,1,306,1,"[object Object]","""","""","""","""","""","""","""","""","""","""","""","""","""","""","""","""","""","""","""","""","""","""","""","""","""","""","""","""","""","""","2020-12-09 14:53:02",107.11.182.13,"Mozilla/5.0 (Windows NT 10.0; Win64; x64) AppleWebKit/537.36 (KHTML, like Gecko) Chrome/87.0.4280.88 Safari/537.36",WebKit,Chrome,87.0.4280.88,Windows,10.0
1,1,"""",html-keyboard-response,66,172558,0.0-2.0-2.6,A1JJYY622DGE5L,65.681,306,1,306,1,"""","""","""","""","""","""","""","""",null,"<p style=""font-size: 48px;"">ready?</p>","""",null,"""","""","""","""","""","""","""","""","""","""","""","""","""","""","""","""","""","""","""","2020-12-09 14:53:02",107.11.182.13,"Mozilla/5.0 (Windows NT 10.0; Win64; x64) AppleWebKit/537.36 (KHTML, like Gecko) Chrome/87.0.4280.88 Safari/537.36",WebKit,Chrome,87.0.4280.88,Windows,10.0
1,1,"""",html-keyboard-response,67,173561,0.0-2.0-3.6,A1JJYY622DGE5L,65.681,306,1,306,1,"""","""","""","""","""","""","""","""",null,"<p style=""font-size: 48px;"">ready?</p>","""",null,"""","""","""","""","""","""","""","""","""","""","""","""","""","""","""","""","""","""","""","2020-12-09 14:53:02",107.11.182.13,"Mozilla/5.0 (Windows NT 10.0; Win64; x64) AppleWebKit/537.36 (KHTML, like Gecko) Chrome/87.0.4280.88 Safari/537.36",WebKit,Chrome,87.0.4280.88,Windows,10.0
1,1,"""",html-keyboard-response,68,174563,0.0-2.0-4.6,A1JJYY622DGE5L,65.681,306,1,306,1,"""","""","""","""","""","""","""","""",null,"<p style=""font-size: 48px;"">ready?</p>","""",null,"""","""","""","""","""","""","""","""","""","""","""","""","""","""","""","""","""","""","""","2020-12-09 14:53:02",107.11.182.13,"Mozilla/5.0 (Windows NT 10.0; Win64; x64) AppleWebKit/537.36 (KHTML, like Gecko) Chrome/87.0.4280.88 Safari/537.36",WebKit,Chrome,87.0.4280.88,Windows,10.0
1,1,null,animation,69,235064,0.0-2.0-5.6,A1JJYY622DGE5L,65.681,306,1,306,1,"""","""","""","""","""","""","[{""stimulus"":""img/024_R_filler_absent.jpg"",""time"":322.4049999989802},{""stimulus"":""blank"",""time"":563.0500000115717},{""stimulus"":""img/024_R_filler_absent.jpg"",""time"":641.6250000038417},{""stimulus"":""blank"",""time"":882.3150000098394},{""stimulus"":""img/024_R_filler_present.jpg"",""time"":961.6550000064308},{""stimulus"":""blank"",""time"":1202.7099999977509},{""stimulus"":""img/024_R_filler_present.jpg"",""time"":1282.005000000936},{""stimulus"":""blank"",""time"":1523.7600000109524},{""stimulus"":""img/024_R_filler_absent.jpg"",""time"":1601.7750000028173},{""stimulus"":""blank"",""time"":1842.980000001262},{""stimulus"":""img/024_R_filler_absent.jpg"",""time"":1921.6250000026776},{""stimulus"":""blank"",""time"":2162.36500001105},{""stimulus"":""img/024_R_filler_present.jpg"",""time"":2242.180000001099},{""stimulus"":""blank"",""time"":2482.7950000035344},{""stimulus"":""img/024_R_filler_present.jpg"",""time"":2562.480000007781},{""stimulus"":""blank"",""time"":2803.280000007362},{""stimulus"":""img/024_R_filler_absent.jpg"",""time"":2882.38999999885},{""stimulus"":""blank"",""time"":3123.4700000059092},{""stimulus"":""img/024_R_filler_absent.jpg"",""time"":3202.100000009523},{""stimulus"":""blank"",""time"":3443.2250000099884},{""stimulus"":""img/024_R_filler_present.jpg"",""time"":3521.7800000100397},{""stimulus"":""blank"",""time"":3762.4650000070687},{""stimulus"":""img/024_R_filler_present.jpg"",""time"":3841.404999999213},{""stimulus"":""blank"",""time"":4082.715000011376},{""stimulus"":""img/024_R_filler_absent.jpg"",""time"":4161.675000010291},{""stimulus"":""blank"",""time"":4402.350000003935},{""stimulus"":""img/024_R_filler_absent.jpg"",""time"":4482.190000009723},{""stimulus"":""blank"",""time"":4724.060000007739},{""stimulus"":""img/024_R_filler_present.jpg"",""time"":4801.149999999325},{""stimulus"":""blank"",""time"":5042.105000000447},{""stimulus"":""img/024_R_filler_present.jpg"",""time"":5121.9249999994645},{""stimulus"":""blank"",""time"":5363.080000010086},{""stimulus"":""img/024_R_filler_absent.jpg"",""time"":5441.735000000335},{""stimulus"":""blank"",""time"":5682.130000001052},{""stimulus"":""img/024_R_filler_absent.jpg"",""time"":5761.750000005122},{""stimulus"":""blank"",""time"":6002.4800000101095},{""stimulus"":""img/024_R_filler_present.jpg"",""time"":6081.935000009253},{""stimulus"":""blank"",""time"":6323.174999997718},{""stimulus"":""img/024_R_filler_present.jpg"",""time"":6401.9050000060815},{""stimulus"":""blank"",""time"":6643.205000000307},{""stimulus"":""img/024_R_filler_absent.jpg"",""time"":6721.480000007432},{""stimulus"":""blank"",""time"":6962.9600000043865},{""stimulus"":""img/024_R_filler_absent.jpg"",""time"":7044.095000004745},{""stimulus"":""blank"",""time"":7285.564999998314},{""stimulus"":""img/024_R_filler_present.jpg"",""time"":7361.085000011371},{""stimulus"":""blank"",""time"":7601.795000009588},{""stimulus"":""img/024_R_filler_present.jpg"",""time"":7692.345000003115},{""stimulus"":""blank"",""time"":7932.630000010249},{""stimulus"":""img/024_R_filler_absent.jpg"",""time"":8001.040000002831},{""stimulus"":""blank"",""time"":8242.754999999306},{""stimulus"":""img/024_R_filler_absent.jpg"",""time"":8323.480000006384},{""stimulus"":""blank"",""time"":8565.700000006473},{""stimulus"":""img/024_R_filler_present.jpg"",""time"":8641.199999998207},{""stimulus"":""blank"",""time"":8882.485000009183},{""stimulus"":""img/024_R_filler_present.jpg"",""time"":8961.42000000691},{""stimulus"":""blank"",""time"":9203.220000010333},{""stimulus"":""img/024_R_filler_absent.jpg"",""time"":9281.264999997802},{""stimulus"":""blank"",""time"":9522.655000007944},{""stimulus"":""img/024_R_filler_absent.jpg"",""time"":9602.765000003274},{""stimulus"":""blank"",""time"":9843.735000002198},{""stimulus"":""img/024_R_filler_present.jpg"",""time"":9922.965000005206},{""stimulus"":""blank"",""time"":10163.574999998673},{""stimulus"":""img/024_R_filler_present.jpg"",""time"":10249.810000008438},{""stimulus"":""blank"",""time"":10490.43000000529},{""stimulus"":""img/024_R_filler_absent.jpg"",""time"":10561.975000004168},{""stimulus"":""blank"",""time"":10802.875000008498},{""stimulus"":""img/024_R_filler_absent.jpg"",""time"":10882.910000000265},{""stimulus"":""blank"",""time"":11123.76500001119},{""stimulus"":""img/024_R_filler_present.jpg"",""time"":11202.1650000097},{""stimulus"":""blank"",""time"":11443.205000003218},{""stimulus"":""img/024_R_filler_present.jpg"",""time"":11522.750000003725},{""stimulus"":""blank"",""time"":11763.839999999618},{""stimulus"":""img/024_R_filler_absent.jpg"",""time"":11842.055000000983},{""stimulus"":""blank"",""time"":12083.115000001271},{""stimulus"":""img/024_R_filler_absent.jpg"",""time"":12162.760000006529},{""stimulus"":""blank"",""time"":12403.019999997923},{""stimulus"":""img/024_R_filler_present.jpg"",""time"":12483.185000004596},{""stimulus"":""blank"",""time"":12723.555000004126},{""stimulus"":""img/024_R_filler_present.jpg"",""time"":12801.605000000563},{""stimulus"":""blank"",""time"":13042.755000002217},{""stimulus"":""img/024_R_filler_absent.jpg"",""time"":13121.840000007069},{""stimulus"":""blank"",""time"":13370.934999999008},{""stimulus"":""img/024_R_filler_absent.jpg"",""time"":13441.950000007637},{""stimulus"":""blank"",""time"":13683.230000009644},{""stimulus"":""img/024_R_filler_present.jpg"",""time"":13762.75500000338},{""stimulus"":""blank"",""time"":14003.195000012056},{""stimulus"":""img/024_R_filler_present.jpg"",""time"":14081.58500000718},{""stimulus"":""blank"",""time"":14322.390000001178},{""stimulus"":""img/024_R_filler_absent.jpg"",""time"":14400.955000004615},{""stimulus"":""blank"",""time"":14641.505000006873},{""stimulus"":""img/024_R_filler_absent.jpg"",""time"":14721.66000001016},{""stimulus"":""blank"",""time"":14962.81500000623},{""stimulus"":""img/024_R_filler_present.jpg"",""time"":15041.880000004312},{""stimulus"":""blank"",""time"":15282.51000000455},{""stimulus"":""img/024_R_filler_present.jpg"",""time"":15362.140000012005},{""stimulus"":""blank"",""time"":15602.95000000042},{""stimulus"":""img/024_R_filler_absent.jpg"",""time"":15681.335000001127},{""stimulus"":""blank"",""time"":15922.080000003916},{""stimulus"":""img/024_R_filler_absent.jpg"",""time"":16001.420000000508},{""stimulus"":""blank"",""time"":16243.419999998878},{""stimulus"":""img/024_R_filler_present.jpg"",""time"":16321.30500000494},{""stimulus"":""blank"",""time"":16562.125000011292},{""stimulus"":""img/024_R_filler_present.jpg"",""time"":16642.270000011194},{""stimulus"":""blank"",""time"":16883.780000003753},{""stimulus"":""img/024_R_filler_absent.jpg"",""time"":16961.825000005774},{""stimulus"":""blank"",""time"":17202.73499999894},{""stimulus"":""img/024_R_filler_absent.jpg"",""time"":17296.320000008564},{""stimulus"":""blank"",""time"":17539.455000005546},{""stimulus"":""img/024_R_filler_present.jpg"",""time"":17602.50000000815},{""stimulus"":""blank"",""time"":17843.290000004345},{""stimulus"":""img/024_R_filler_present.jpg"",""time"":17925.69000000367},{""stimulus"":""blank"",""time"":18166.20000000694},{""stimulus"":""img/024_R_filler_absent.jpg"",""time"":18241.620000000694},{""stimulus"":""blank"",""time"":18482.52499999944},{""stimulus"":""img/024_R_filler_absent.jpg"",""time"":18567.45500001125},{""stimulus"":""blank"",""time"":18809.185000005527},{""stimulus"":""img/024_R_filler_present.jpg"",""time"":18881.70500000706},{""stimulus"":""blank"",""time"":19122.315000000526},{""stimulus"":""img/024_R_filler_present.jpg"",""time"":19201.97000000917},{""stimulus"":""blank"",""time"":19442.960000000312},{""stimulus"":""img/024_R_filler_absent.jpg"",""time"":19521.645000000717},{""stimulus"":""blank"",""time"":19762.100000007194},{""stimulus"":""img/024_R_filler_absent.jpg"",""time"":19841.880000007222},{""stimulus"":""blank"",""time"":20083.045000006678},{""stimulus"":""img/024_R_filler_present.jpg"",""time"":20162.380000008852},{""stimulus"":""blank"",""time"":20403.73499999987},{""stimulus"":""img/024_R_filler_present.jpg"",""time"":20482.33500000788},{""stimulus"":""blank"",""time"":20722.815000000992},{""stimulus"":""img/024_R_filler_absent.jpg"",""time"":20802.009999999427},{""stimulus"":""blank"",""time"":21043.275000003632},{""stimulus"":""img/024_R_filler_absent.jpg"",""time"":21121.74000000232},{""stimulus"":""blank"",""time"":21362.48000001069},{""stimulus"":""img/024_R_filler_present.jpg"",""time"":21442.28000000294},{""stimulus"":""blank"",""time"":21683.015000002342},{""stimulus"":""img/024_R_filler_present.jpg"",""time"":21762.320000008913},{""stimulus"":""blank"",""time"":22003.11000000511},{""stimulus"":""img/024_R_filler_absent.jpg"",""time"":22081.875000003492},{""stimulus"":""blank"",""time"":22322.795000000042},{""stimulus"":""img/024_R_filler_absent.jpg"",""time"":22402.630000011413},{""stimulus"":""blank"",""time"":22643.825000006473},{""stimulus"":""img/024_R_filler_present.jpg"",""time"":22721.77499999816},{""stimulus"":""blank"",""time"":22963.145000001532},{""stimulus"":""img/024_R_filler_present.jpg"",""time"":23041.655000008177},{""stimulus"":""blank"",""time"":23282.48999999778},{""stimulus"":""img/024_R_filler_absent.jpg"",""time"":23362.2250000044},{""stimulus"":""blank"",""time"":23603.52000000421},{""stimulus"":""img/024_R_filler_absent.jpg"",""time"":23681.700000001},{""stimulus"":""blank"",""time"":23922.790000011446},{""stimulus"":""img/024_R_filler_present.jpg"",""time"":24001.625000004424},{""stimulus"":""blank"",""time"":24242.0800000109},{""stimulus"":""img/024_R_filler_present.jpg"",""time"":24321.51999999769},{""stimulus"":""blank"",""time"":24562.99000000581},{""stimulus"":""img/024_R_filler_absent.jpg"",""time"":24641.849999999977},{""stimulus"":""blank"",""time"":24882.775000005495},{""stimulus"":""img/024_R_filler_absent.jpg"",""time"":24961.83500000916},{""stimulus"":""blank"",""time"":25203.175000002375},{""stimulus"":""img/024_R_filler_present.jpg"",""time"":25281.74000000581},{""stimulus"":""blank"",""time"":25522.42500000284},{""stimulus"":""img/024_R_filler_present.jpg"",""time"":25603.115000005346},{""stimulus"":""blank"",""time"":25844.154999998864},{""stimulus"":""img/024_R_filler_absent.jpg"",""time"":25921.905000010156},{""stimulus"":""blank"",""time"":26163.200000009965},{""stimulus"":""img/024_R_filler_absent.jpg"",""time"":26243.029999997816},{""stimulus"":""blank"",""time"":26483.850000004168},{""stimulus"":""img/024_R_filler_present.jpg"",""time"":26562.5},{""stimulus"":""blank"",""time"":26803.76000000979},{""stimulus"":""img/024_R_filler_present.jpg"",""time"":26881.865000003017},{""stimulus"":""blank"",""time"":27122.50500000664},{""stimulus"":""img/024_R_filler_absent.jpg"",""time"":27202.545000007376},{""stimulus"":""blank"",""time"":27444.100000007893},{""stimulus"":""img/024_R_filler_absent.jpg"",""time"":27522.145000009914},{""stimulus"":""blank"",""time"":27763.25000000361},{""stimulus"":""img/024_R_filler_present.jpg"",""time"":27842.029999999795},{""stimulus"":""blank"",""time"":28082.399999999325},{""stimulus"":""img/024_R_filler_present.jpg"",""time"":28161.79500000726},{""stimulus"":""blank"",""time"":28402.600000001257},{""stimulus"":""img/024_R_filler_absent.jpg"",""time"":28481.079999997746},{""stimulus"":""blank"",""time"":28722.29000000516},{""stimulus"":""img/024_R_filler_absent.jpg"",""time"":28801.43500000122},{""stimulus"":""blank"",""time"":29042.08500000823},{""stimulus"":""img/024_R_filler_present.jpg"",""time"":29121.28500000108},{""stimulus"":""blank"",""time"":29362.235000007786},{""stimulus"":""img/024_R_filler_present.jpg"",""time"":29441.66500000574},{""stimulus"":""blank"",""time"":29682.78500001179},{""stimulus"":""img/024_R_filler_absent.jpg"",""time"":29761.670000007143},{""stimulus"":""blank"",""time"":30002.800000002026},{""stimulus"":""img/024_R_filler_absent.jpg"",""time"":30082.515000001877},{""stimulus"":""blank"",""time"":30323.355000000447},{""stimulus"":""img/024_R_filler_present.jpg"",""time"":30401.350000000093},{""stimulus"":""blank"",""time"":30642.285000008997},{""stimulus"":""img/024_R_filler_present.jpg"",""time"":30722.21000000718},{""stimulus"":""blank"",""time"":30963.550000000396},{""stimulus"":""img/024_R_filler_absent.jpg"",""time"":31041.96000000229},{""stimulus"":""blank"",""time"":31282.930000001215},{""stimulus"":""img/024_R_filler_absent.jpg"",""time"":31362.625000008848},{""stimulus"":""blank"",""time"":31603.230000007898},{""stimulus"":""img/024_R_filler_present.jpg"",""time"":31681.519999998272},{""stimulus"":""blank"",""time"":31922.30500000005},{""stimulus"":""img/024_R_filler_present.jpg"",""time"":32001.210000002175},{""stimulus"":""blank"",""time"":32242.010000001756},{""stimulus"":""img/024_R_filler_absent.jpg"",""time"":32321.64000000921},{""stimulus"":""blank"",""time"":32562.985000011395},{""stimulus"":""img/024_R_filler_absent.jpg"",""time"":32641.230000008363},{""stimulus"":""blank"",""time"":32881.950000009965},{""stimulus"":""img/024_R_filler_present.jpg"",""time"":32961.04500000365},{""stimulus"":""blank"",""time"":33202.7800000069},{""stimulus"":""img/024_R_filler_present.jpg"",""time"":33281.870000006165},{""stimulus"":""blank"",""time"":33522.58000000438},{""stimulus"":""img/024_R_filler_absent.jpg"",""time"":33602.15000000608},{""stimulus"":""blank"",""time"":33843.30500000215},{""stimulus"":""img/024_R_filler_absent.jpg"",""time"":33921.56500001147},{""stimulus"":""blank"",""time"":34162.17000001052},{""stimulus"":""img/024_R_filler_present.jpg"",""time"":34241.680000006454},{""stimulus"":""blank"",""time"":34482.83000000811},{""stimulus"":""img/024_R_filler_present.jpg"",""time"":34562.235000004875},{""stimulus"":""blank"",""time"":34803.71000000741},{""stimulus"":""img/024_R_filler_absent.jpg"",""time"":34882.74000000092},{""stimulus"":""blank"",""time"":35123.145000005024},{""stimulus"":""img/024_R_filler_absent.jpg"",""time"":35201.914999997825},{""stimulus"":""blank"",""time"":35442.3700000043},{""stimulus"":""img/024_R_filler_present.jpg"",""time"":35522.77500000491},{""stimulus"":""blank"",""time"":35763.38499999838},{""stimulus"":""img/024_R_filler_present.jpg"",""time"":35842.13499999896},{""stimulus"":""blank"",""time"":36083.86500000779},{""stimulus"":""img/024_R_filler_absent.jpg"",""time"":36161.665000006906},{""stimulus"":""blank"",""time"":36402.36000000732},{""stimulus"":""img/024_R_filler_absent.jpg"",""time"":36482.02999999921},{""stimulus"":""blank"",""time"":36722.94000000693},{""stimulus"":""img/024_R_filler_present.jpg"",""time"":36801.45500000799},{""stimulus"":""blank"",""time"":37042.184999998426},{""stimulus"":""img/024_R_filler_present.jpg"",""time"":37122.34000000171},{""stimulus"":""blank"",""time"":37363.29000000842},{""stimulus"":""img/024_R_filler_absent.jpg"",""time"":37456.07000000018},{""stimulus"":""blank"",""time"":37697.29000001098},{""stimulus"":""img/024_R_filler_absent.jpg"",""time"":37761.255000004894},{""stimulus"":""blank"",""time"":38001.640000002226},{""stimulus"":""img/024_R_filler_present.jpg"",""time"":38082.26999999897},{""stimulus"":""blank"",""time"":38324.045000001206},{""stimulus"":""img/024_R_filler_present.jpg"",""time"":38403.14000000944},{""stimulus"":""blank"",""time"":38644.19000000635},{""stimulus"":""img/024_R_filler_absent.jpg"",""time"":38721.9299999997},{""stimulus"":""blank"",""time"":38964.1100000008},{""stimulus"":""img/024_R_filler_absent.jpg"",""time"":39042.41000000911},{""stimulus"":""blank"",""time"":39282.890000002226},{""stimulus"":""img/024_R_filler_present.jpg"",""time"":39361.83500000334},{""stimulus"":""blank"",""time"":39603.390000003856},{""stimulus"":""img/024_R_filler_present.jpg"",""time"":39682.534999999916},{""stimulus"":""blank"",""time"":39923.48500000662},{""stimulus"":""img/024_R_filler_absent.jpg"",""time"":40001.680000001215},{""stimulus"":""blank"",""time"":40242.90500000643},{""stimulus"":""img/024_R_filler_absent.jpg"",""time"":40321.89000000653},{""stimulus"":""blank"",""time"":40563.32500001008},{""stimulus"":""img/024_R_filler_present.jpg"",""time"":40641.62999999826},{""stimulus"":""blank"",""time"":40882.53500001156},{""stimulus"":""img/024_R_filler_present.jpg"",""time"":40962.315000011586},{""stimulus"":""blank"",""time"":41204.00500000687},{""stimulus"":""img/024_R_filler_absent.jpg"",""time"":41281.21000000101},{""stimulus"":""blank"",""time"":41521.88000000024},{""stimulus"":""img/024_R_filler_absent.jpg"",""time"":41602.59500000393},{""stimulus"":""blank"",""time"":41843.385000000126},{""stimulus"":""img/024_R_filler_present.jpg"",""time"":41922.180000008666},{""stimulus"":""blank"",""time"":42163.655000011204},{""stimulus"":""img/024_R_filler_present.jpg"",""time"":42241.22999999963},{""stimulus"":""blank"",""time"":42484.10000000149},{""stimulus"":""img/024_R_filler_absent.jpg"",""time"":42561.30500001018},{""stimulus"":""blank"",""time"":42803.46000001009},{""stimulus"":""img/024_R_filler_absent.jpg"",""time"":42881.755000009434},{""stimulus"":""blank"",""time"":43123.46500001149},{""stimulus"":""img/024_R_filler_present.jpg"",""time"":43201.48000000336},{""stimulus"":""blank"",""time"":43442.699999999604},{""stimulus"":""img/024_R_filler_present.jpg"",""time"":43521.22999999847},{""stimulus"":""blank"",""time"":43762.11999999941},{""stimulus"":""img/024_R_filler_absent.jpg"",""time"":43841.855000006035},{""stimulus"":""blank"",""time"":44082.31500000693},{""stimulus"":""img/024_R_filler_absent.jpg"",""time"":44162.260000011884},{""stimulus"":""blank"",""time"":44402.740000005},{""stimulus"":""img/024_R_filler_present.jpg"",""time"":44482.19500000414},{""stimulus"":""blank"",""time"":44723.180000000866},{""stimulus"":""img/024_R_filler_present.jpg"",""time"":44801.87500000466},{""stimulus"":""blank"",""time"":45043.23999999906},{""stimulus"":""img/024_R_filler_absent.jpg"",""time"":45123.225000003},{""stimulus"":""blank"",""time"":45363.99500000698},{""stimulus"":""img/024_R_filler_absent.jpg"",""time"":45440.889999998035},{""stimulus"":""blank"",""time"":45682.285000002594},{""stimulus"":""img/024_R_filler_present.jpg"",""time"":45762.530000007246},{""stimulus"":""blank"",""time"":46003.470000010566},{""stimulus"":""img/024_R_filler_present.jpg"",""time"":46082.03499999945},{""stimulus"":""blank"",""time"":46323.43000000401},{""stimulus"":""img/024_R_filler_absent.jpg"",""time"":46401.42000000924},{""stimulus"":""blank"",""time"":46642.24500001001},{""stimulus"":""img/024_R_filler_absent.jpg"",""time"":46721.5850000066},{""stimulus"":""blank"",""time"":46962.41000000737},{""stimulus"":""img/024_R_filler_present.jpg"",""time"":47042.86500001035},{""stimulus"":""blank"",""time"":47283.61500000756},{""stimulus"":""img/024_R_filler_present.jpg"",""time"":47362.020000000484},{""stimulus"":""blank"",""time"":47602.63500000292},{""stimulus"":""img/024_R_filler_absent.jpg"",""time"":47682.520000002114},{""stimulus"":""blank"",""time"":47923.829999999725},{""stimulus"":""img/024_R_filler_absent.jpg"",""time"":48002.5200000091},{""stimulus"":""blank"",""time"":48243.15500000375},{""stimulus"":""img/024_R_filler_present.jpg"",""time"":48322.55000001169},{""stimulus"":""blank"",""time"":48563.83500000811},{""stimulus"":""img/024_R_filler_present.jpg"",""time"":48643.37499999965},{""stimulus"":""blank"",""time"":48884.84500000777},{""stimulus"":""img/024_R_filler_absent.jpg"",""time"":48961.650000012014},{""stimulus"":""blank"",""time"":49204.70500001102},{""stimulus"":""img/024_R_filler_absent.jpg"",""time"":49282.87000001001},{""stimulus"":""blank"",""time"":49523.57000000484},{""stimulus"":""img/024_R_filler_present.jpg"",""time"":49602.28000000643},{""stimulus"":""blank"",""time"":49843.4350000025},{""stimulus"":""img/024_R_filler_present.jpg"",""time"":49921.63500000606},{""stimulus"":""blank"",""time"":50163.06500000064},{""stimulus"":""img/024_R_filler_absent.jpg"",""time"":50241.835000007995},{""stimulus"":""blank"",""time"":50483.29000000376},{""stimulus"":""img/024_R_filler_absent.jpg"",""time"":50561.67999999889},{""stimulus"":""blank"",""time"":50802.470000009635},{""stimulus"":""img/024_R_filler_present.jpg"",""time"":50882.06000000355},{""stimulus"":""blank"",""time"":51123.46500001149},{""stimulus"":""img/024_R_filler_present.jpg"",""time"":51202.820000005886},{""stimulus"":""blank"",""time"":51443.71000000683},{""stimulus"":""img/024_R_filler_absent.jpg"",""time"":51521.05500000471},{""stimulus"":""blank"",""time"":51762.17500001076},{""stimulus"":""img/024_R_filler_absent.jpg"",""time"":51841.70499999891},{""stimulus"":""blank"",""time"":52082.185000006575},{""stimulus"":""img/024_R_filler_present.jpg"",""time"":52161.35999999824},{""stimulus"":""blank"",""time"":52402.679999999236},{""stimulus"":""img/024_R_filler_present.jpg"",""time"":52481.7550000007},{""stimulus"":""blank"",""time"":52722.480000011274},{""stimulus"":""img/024_R_filler_absent.jpg"",""time"":52802.99500000547},{""stimulus"":""blank"",""time"":53043.76500000944},{""stimulus"":""img/024_R_filler_absent.jpg"",""time"":53121.97500000184},{""stimulus"":""blank"",""time"":53363.42500000319},{""stimulus"":""img/024_R_filler_present.jpg"",""time"":53441.25499999791},{""stimulus"":""blank"",""time"":53682.5300000055},{""stimulus"":""img/024_R_filler_present.jpg"",""time"":53761.899999997695},{""stimulus"":""blank"",""time"":54002.5500000047},{""stimulus"":""img/024_R_filler_absent.jpg"",""time"":54081.36500000546},{""stimulus"":""blank"",""time"":54322.52000000153},{""stimulus"":""img/024_R_filler_absent.jpg"",""time"":54401.02499999921},{""stimulus"":""blank"",""time"":54641.540000011446},{""stimulus"":""img/024_R_filler_present.jpg"",""time"":54722.03499999887},{""stimulus"":""blank"",""time"":54962.80000000843},{""stimulus"":""img/024_R_filler_present.jpg"",""time"":55041.88000000431},{""stimulus"":""blank"",""time"":55282.79000001203},{""stimulus"":""img/024_R_filler_absent.jpg"",""time"":55361.24500000733},{""stimulus"":""blank"",""time"":55602.54000000714},{""stimulus"":""img/024_R_filler_absent.jpg"",""time"":55682.300000000396},{""stimulus"":""blank"",""time"":55922.98000000301},{""stimulus"":""img/024_R_filler_present.jpg"",""time"":56001.994999998715},{""stimulus"":""blank"",""time"":56242.59000000893},{""stimulus"":""img/024_R_filler_present.jpg"",""time"":56323.31000000704},{""stimulus"":""blank"",""time"":56564.66000000364},{""stimulus"":""img/024_R_filler_absent.jpg"",""time"":56641.05500000005},{""stimulus"":""blank"",""time"":56882.11000000592},{""stimulus"":""img/024_R_filler_absent.jpg"",""time"":56961.605000004056},{""stimulus"":""blank"",""time"":57202.270000008866},{""stimulus"":""img/024_R_filler_present.jpg"",""time"":57282.4099999998},{""stimulus"":""blank"",""time"":57523.735000009765},{""stimulus"":""img/024_R_filler_present.jpg"",""time"":57601.91500000656},{""stimulus"":""blank"",""time"":57843.189999999595},{""stimulus"":""img/024_R_filler_absent.jpg"",""time"":57921.58500000369},{""stimulus"":""blank"",""time"":58162.81500000332},{""stimulus"":""img/024_R_filler_absent.jpg"",""time"":58241.57500000729},{""stimulus"":""blank"",""time"":58482.36500000348},{""stimulus"":""img/024_R_filler_present.jpg"",""time"":58561.80000001041},{""stimulus"":""blank"",""time"":58802.62000000221},{""stimulus"":""img/024_R_filler_present.jpg"",""time"":58882.24000000628},{""stimulus"":""blank"",""time"":59123.635000010836},{""stimulus"":""img/024_R_filler_absent.jpg"",""time"":59202.095000000554},{""stimulus"":""blank"",""time"":59443.33500000357},{""stimulus"":""img/024_R_filler_absent.jpg"",""time"":59521.57500000612},{""stimulus"":""blank"",""time"":59762.650000004214},{""stimulus"":""img/024_R_filler_present.jpg"",""time"":59842.38000000187},{""stimulus"":""blank"",""time"":60083.030000008876},{""stimulus"":""img/024_R_filler_present.jpg"",""time"":60161.93000000203},{""stimulus"":""blank"",""time"":60402.83000000636}]",[],"""",024,R,"""","""","""","2,2",7,"""","""","""","""","""","""","""","""","""","""","""","""","""","""","""","2020-12-09 14:53:02",107.11.182.13,"Mozilla/5.0 (Windows NT 10.0; Win64; x64) AppleWebKit/537.36 (KHTML, like Gecko) Chrome/87.0.4280.88 Safari/537.36",WebKit,Chrome,87.0.4280.88,Windows,10.0
1,1,"""",image-button-response,70,237836,0.0-2.0-6.6,A1JJYY622DGE5L,65.681,306,1,306,1,"""","""","""","""","""","""","""","""",2760.0949999905424,"detection grids/024R.jpg","""","""","""",4,"""","""",false,"""","""","""","""","""","""","""","""","""","""","""","""","""","""","2020-12-09 14:53:02",107.11.182.13,"Mozilla/5.0 (Windows NT 10.0; Win64; x64) AppleWebKit/537.36 (KHTML, like Gecko) Chrome/87.0.4280.88 Safari/537.36",WebKit,Chrome,87.0.4280.88,Windows,10.0
1,1,"""",image-button-response,71,240885,0.0-2.0-7.6,A1JJYY622DGE5L,65.681,306,1,306,1,"""","""","""","""","""","""","""","""",3031.5649999974994,"detection grids/024R.jpg","""","""","""",4,"""","""",false,"""","""","""","""","""","""","""","""","""","""","""","""","""","""","2020-12-09 14:53:02",107.11.182.13,"Mozilla/5.0 (Windows NT 10.0; Win64; x64) AppleWebKit/537.36 (KHTML, like Gecko) Chrome/87.0.4280.88 Safari/537.36",WebKit,Chrome,87.0.4280.88,Windows,10.0
1,1,"""",call-function,72,240892,0.0-2.0-0.7,A1JJYY622DGE5L,65.681,306,1,306,1,"[object Object]","""","""","""","""","""","""","""","""","""","""","""","""","""","""","""","""","""","""","""","""","""","""","""","""","""","""","""","""","""","""","2020-12-09 14:53:02",107.11.182.13,"Mozilla/5.0 (Windows NT 10.0; Win64; x64) AppleWebKit/537.36 (KHTML, like Gecko) Chrome/87.0.4280.88 Safari/537.36",WebKit,Chrome,87.0.4280.88,Windows,10.0
1,1,"""",html-keyboard-response,73,240906,0.0-2.0-1.7,A1JJYY622DGE5L,65.681,306,1,306,1,"[object Object]","""","""","""","""","""","""","""","""","""","""","""","""","""","""","""","""","""","""","""","""","""","""","""","""","""","""","""","""","""","""","2020-12-09 14:53:02",107.11.182.13,"Mozilla/5.0 (Windows NT 10.0; Win64; x64) AppleWebKit/537.36 (KHTML, like Gecko) Chrome/87.0.4280.88 Safari/537.36",WebKit,Chrome,87.0.4280.88,Windows,10.0
1,1,"""",html-keyboard-response,74,241907,0.0-2.0-2.7,A1JJYY622DGE5L,65.681,306,1,306,1,"""","""","""","""","""","""","""","""",null,"<p style=""font-size: 48px;"">ready?</p>","""",null,"""","""","""","""","""","""","""","""","""","""","""","""","""","""","""","""","""","""","""","2020-12-09 14:53:02",107.11.182.13,"Mozilla/5.0 (Windows NT 10.0; Win64; x64) AppleWebKit/537.36 (KHTML, like Gecko) Chrome/87.0.4280.88 Safari/537.36",WebKit,Chrome,87.0.4280.88,Windows,10.0
1,1,"""",html-keyboard-response,75,242914,0.0-2.0-3.7,A1JJYY622DGE5L,65.681,306,1,306,1,"""","""","""","""","""","""","""","""",null,"<p style=""font-size: 48px;"">ready?</p>","""",null,"""","""","""","""","""","""","""","""","""","""","""","""","""","""","""","""","""","""","""","2020-12-09 14:53:02",107.11.182.13,"Mozilla/5.0 (Windows NT 10.0; Win64; x64) AppleWebKit/537.36 (KHTML, like Gecko) Chrome/87.0.4280.88 Safari/537.36",WebKit,Chrome,87.0.4280.88,Windows,10.0
1,1,"""",html-keyboard-response,76,243917,0.0-2.0-4.7,A1JJYY622DGE5L,65.681,306,1,306,1,"""","""","""","""","""","""","""","""",null,"<p style=""font-size: 48px;"">ready?</p>","""",null,"""","""","""","""","""","""","""","""","""","""","""","""","""","""","""","""","""","""","""","2020-12-09 14:53:02",107.11.182.13,"Mozilla/5.0 (Windows NT 10.0; Win64; x64) AppleWebKit/537.36 (KHTML, like Gecko) Chrome/87.0.4280.88 Safari/537.36",WebKit,Chrome,87.0.4280.88,Windows,10.0
1,1,true,animation,77,254919,0.0-2.0-5.7,A1JJYY622DGE5L,65.681,306,1,306,1,"""","""","""","""","""","""","[{""stimulus"":""img/018_L_filler_absent.jpg"",""time"":321.9450000033248},{""stimulus"":""blank"",""time"":562.3849999974482},{""stimulus"":""img/018_L_filler_absent.jpg"",""time"":643.580000003567},{""stimulus"":""blank"",""time"":884.409999998752},{""stimulus"":""img/018_L_filler_present.jpg"",""time"":962.3700000083772},{""stimulus"":""blank"",""time"":1203.6650000081863},{""stimulus"":""img/018_L_filler_present.jpg"",""time"":1282.229999997071},{""stimulus"":""blank"",""time"":1522.9450000042561},{""stimulus"":""img/018_L_filler_absent.jpg"",""time"":1601.5800000022864},{""stimulus"":""blank"",""time"":1842.5399999978254},{""stimulus"":""img/018_L_filler_absent.jpg"",""time"":1922.2850000078324},{""stimulus"":""blank"",""time"":2163.0000000004657},{""stimulus"":""img/018_L_filler_present.jpg"",""time"":2242.305000007036},{""stimulus"":""blank"",""time"":2483.345000000554},{""stimulus"":""img/018_L_filler_present.jpg"",""time"":2562.1850000025006},{""stimulus"":""blank"",""time"":2803.3399999985704},{""stimulus"":""img/018_L_filler_absent.jpg"",""time"":2882.165000002715},{""stimulus"":""blank"",""time"":3122.9400000011083},{""stimulus"":""img/018_L_filler_absent.jpg"",""time"":3203.0999999988126},{""stimulus"":""blank"",""time"":3445.0849999993807},{""stimulus"":""img/018_L_filler_present.jpg"",""time"":3521.9300000026124},{""stimulus"":""blank"",""time"":3763.2900000025984},{""stimulus"":""img/018_L_filler_present.jpg"",""time"":3842.0199999964098},{""stimulus"":""blank"",""time"":4082.7299999946263},{""stimulus"":""img/018_L_filler_absent.jpg"",""time"":4162.240000005113},{""stimulus"":""blank"",""time"":4404.219999996712},{""stimulus"":""img/018_L_filler_absent.jpg"",""time"":4482.15500000515},{""stimulus"":""blank"",""time"":4722.754999995232},{""stimulus"":""img/018_L_filler_present.jpg"",""time"":4802.345000003697},{""stimulus"":""blank"",""time"":5043.619999996736},{""stimulus"":""img/018_L_filler_present.jpg"",""time"":5120.825000005425},{""stimulus"":""blank"",""time"":5361.424999995506},{""stimulus"":""img/018_L_filler_absent.jpg"",""time"":5441.604999999981},{""stimulus"":""blank"",""time"":5682.639999999083},{""stimulus"":""img/018_L_filler_absent.jpg"",""time"":5762.090000003809},{""stimulus"":""blank"",""time"":6003.200000006473},{""stimulus"":""img/018_L_filler_present.jpg"",""time"":6081.460000001243},{""stimulus"":""blank"",""time"":6322.520000001532},{""stimulus"":""img/018_L_filler_present.jpg"",""time"":6402.004999996279},{""stimulus"":""blank"",""time"":6642.665000006673},{""stimulus"":""img/018_L_filler_absent.jpg"",""time"":6721.87500000291},{""stimulus"":""blank"",""time"":6963.075000006938},{""stimulus"":""img/018_L_filler_absent.jpg"",""time"":7041.729999997187},{""stimulus"":""blank"",""time"":7287.54000000481},{""stimulus"":""img/018_L_filler_present.jpg"",""time"":7362.789999999222},{""stimulus"":""blank"",""time"":7604.575000004843},{""stimulus"":""img/018_L_filler_present.jpg"",""time"":7682.9149999975925},{""stimulus"":""blank"",""time"":7923.974999997881},{""stimulus"":""img/018_L_filler_absent.jpg"",""time"":8002.720000004047},{""stimulus"":""blank"",""time"":8243.570000006002},{""stimulus"":""img/018_L_filler_absent.jpg"",""time"":8321.745000008377},{""stimulus"":""blank"",""time"":8562.63499999477},{""stimulus"":""img/018_L_filler_present.jpg"",""time"":8641.575000001467},{""stimulus"":""blank"",""time"":8882.515000004787},{""stimulus"":""img/018_L_filler_present.jpg"",""time"":8962.220000001253},{""stimulus"":""blank"",""time"":9202.785000001313},{""stimulus"":""img/018_L_filler_absent.jpg"",""time"":9282.059999997728},{""stimulus"":""blank"",""time"":9523.320000007516},{""stimulus"":""img/018_L_filler_absent.jpg"",""time"":9603.264999997918},{""stimulus"":""blank"",""time"":9843.75},{""stimulus"":""img/018_L_filler_present.jpg"",""time"":9921.635000006063},{""stimulus"":""blank"",""time"":10162.3799999943},{""stimulus"":""img/018_L_filler_present.jpg"",""time"":10242.960000003222},{""stimulus"":""blank"",""time"":10483.5299999977},{""stimulus"":""img/018_L_filler_absent.jpg"",""time"":10561.954999997397},{""stimulus"":""blank"",""time"":10802.385000002687},{""stimulus"":""img/018_L_filler_absent.jpg"",""time"":10881.919999999809}]","[{""key_press"":32,""rt"":10998.46499999694,""stimulus"":""img/018_L_filler_absent.jpg""}]",10998.695000002044,018,L,"""","""","""","1,3",8,"""","""","""","""","""","""","""","""","""","""","""","""","""","""","""","2020-12-09 14:53:02",107.11.182.13,"Mozilla/5.0 (Windows NT 10.0; Win64; x64) AppleWebKit/537.36 (KHTML, like Gecko) Chrome/87.0.4280.88 Safari/537.36",WebKit,Chrome,87.0.4280.88,Windows,10.0
1,1,"""",image-button-response,78,257979,0.0-2.0-6.7,A1JJYY622DGE5L,65.681,306,1,306,1,"""","""","""","""","""","""","""","""",3021.1249999993015,"detection grids/018L.jpg","""","""","""",1,"""","""",true,"""","""","""","""","""","""","""","""","""","""","""","""","""","""","2020-12-09 14:53:02",107.11.182.13,"Mozilla/5.0 (Windows NT 10.0; Win64; x64) AppleWebKit/537.36 (KHTML, like Gecko) Chrome/87.0.4280.88 Safari/537.36",WebKit,Chrome,87.0.4280.88,Windows,10.0
1,1,"""",image-button-response,79,258947,0.0-2.0-7.7,A1JJYY622DGE5L,65.681,306,1,306,1,"""","""","""","""","""","""","""","""",960.0100000097882,"detection grids/018L.jpg","""","""","""",3,"""","""",true,"""","""","""","""","""","""","""","""","""","""","""","""","""","""","2020-12-09 14:53:02",107.11.182.13,"Mozilla/5.0 (Windows NT 10.0; Win64; x64) AppleWebKit/537.36 (KHTML, like Gecko) Chrome/87.0.4280.88 Safari/537.36",WebKit,Chrome,87.0.4280.88,Windows,10.0
1,1,"""",call-function,80,258971,0.0-2.0-0.8,A1JJYY622DGE5L,65.681,306,1,306,1,"[object Object]","""","""","""","""","""","""","""","""","""","""","""","""","""","""","""","""","""","""","""","""","""","""","""","""","""","""","""","""","""","""","2020-12-09 14:53:02",107.11.182.13,"Mozilla/5.0 (Windows NT 10.0; Win64; x64) AppleWebKit/537.36 (KHTML, like Gecko) Chrome/87.0.4280.88 Safari/537.36",WebKit,Chrome,87.0.4280.88,Windows,10.0
1,1,"""",html-keyboard-response,81,258984,0.0-2.0-1.8,A1JJYY622DGE5L,65.681,306,1,306,1,"[object Object]","""","""","""","""","""","""","""","""","""","""","""","""","""","""","""","""","""","""","""","""","""","""","""","""","""","""","""","""","""","""","2020-12-09 14:53:02",107.11.182.13,"Mozilla/5.0 (Windows NT 10.0; Win64; x64) AppleWebKit/537.36 (KHTML, like Gecko) Chrome/87.0.4280.88 Safari/537.36",WebKit,Chrome,87.0.4280.88,Windows,10.0
1,1,"""",html-keyboard-response,82,259985,0.0-2.0-2.8,A1JJYY622DGE5L,65.681,306,1,306,1,"""","""","""","""","""","""","""","""",null,"<p style=""font-size: 48px;"">ready?</p>","""",null,"""","""","""","""","""","""","""","""","""","""","""","""","""","""","""","""","""","""","""","2020-12-09 14:53:02",107.11.182.13,"Mozilla/5.0 (Windows NT 10.0; Win64; x64) AppleWebKit/537.36 (KHTML, like Gecko) Chrome/87.0.4280.88 Safari/537.36",WebKit,Chrome,87.0.4280.88,Windows,10.0
1,1,"""",html-keyboard-response,83,260987,0.0-2.0-3.8,A1JJYY622DGE5L,65.681,306,1,306,1,"""","""","""","""","""","""","""","""",null,"<p style=""font-size: 48px;"">ready?</p>","""",null,"""","""","""","""","""","""","""","""","""","""","""","""","""","""","""","""","""","""","""","2020-12-09 14:53:02",107.11.182.13,"Mozilla/5.0 (Windows NT 10.0; Win64; x64) AppleWebKit/537.36 (KHTML, like Gecko) Chrome/87.0.4280.88 Safari/537.36",WebKit,Chrome,87.0.4280.88,Windows,10.0
1,1,"""",html-keyboard-response,84,261988,0.0-2.0-4.8,A1JJYY622DGE5L,65.681,306,1,306,1,"""","""","""","""","""","""","""","""",null,"<p style=""font-size: 48px;"">ready?</p>","""",null,"""","""","""","""","""","""","""","""","""","""","""","""","""","""","""","""","""","""","""","2020-12-09 14:53:02",107.11.182.13,"Mozilla/5.0 (Windows NT 10.0; Win64; x64) AppleWebKit/537.36 (KHTML, like Gecko) Chrome/87.0.4280.88 Safari/537.36",WebKit,Chrome,87.0.4280.88,Windows,10.0
