run_id,condition,success,trial_type,trial_index,time_elapsed,internal_node_id,id,distance,width,train_repeats,subject_id,card_width_px,value,final_width_px,scale_factor,item_width,pixels_unit_screen,pixels_per_unit,animation_sequence,responses,rt,stimulus,stimulus_side,key_press,button_pressed,col_row_answers,correct_response,acc,animation_performance,bProblem,sProblem,trial_began,timing_response,fade_out_time,fade_in_time,fade_out_length,stimulus_alpha,timing_post_trial,within_ITI,trial,question_order,recorded_at,ip,user_agent,device,browser,browser_version,platform,platform_version
75,1,TRUE,fullscreen,0,2088,0.0-0.0-0.0,ff,26.842,387,1,ff,387,"""","""","""","""","""","""","""","""","""","""","""","""","""","""","""","""","""","""","""","""","""","""","""","""","""","""","""","""","""",10/7/2020 12:32,188.120.158.162,"Mozilla/5.0 (Windows NT 10.0; Win64; x64) AppleWebKit/537.36 (KHTML, like Gecko) Chrome/85.0.4183.102 Safari/537.36",WebKit,Chrome,85.0.4183.102,Windows,10
75,1,"""",call-function,1,2094,0.0-0.0-1.0,ff,26.842,387,1,ff,387,"""","""","""","""","""","""","""","""","""","""","""","""","""","""","""","""","""","""","""","""","""","""","""","""","""","""","""","""","""",10/7/2020 12:32,188.120.158.162,"Mozilla/5.0 (Windows NT 10.0; Win64; x64) AppleWebKit/537.36 (KHTML, like Gecko) Chrome/85.0.4183.102 Safari/537.36",WebKit,Chrome,85.0.4183.102,Windows,10
75,1,"""",new-resize,2,2095,0.0-0.0-2.0,ff,26.842,387,1,ff,387,"""",387,0.764444444,3.375,114.6666667,150,"""","""","""","""","""","""","""","""","""","""","""","""","""","""","""","""","""","""","""","""","""","""","""",10/7/2020 12:32,188.120.158.162,"Mozilla/5.0 (Windows NT 10.0; Win64; x64) AppleWebKit/537.36 (KHTML, like Gecko) Chrome/85.0.4183.102 Safari/537.36",WebKit,Chrome,85.0.4183.102,Windows,10
75,1,"""",animation,3,2099,0.0-0.0-3.0,ff,26.842,387,1,ff,387,"""","""","""","""","""","""","[{""stimulus"":""img/demo1_absent.jpg"",""time"":1.5149996615946293}]",[],"""",1,o,"""","""","""","""","""","""","""","""","""","""","""","""","""","""","""","""","""","""",10/7/2020 12:32,188.120.158.162,"Mozilla/5.0 (Windows NT 10.0; Win64; x64) AppleWebKit/537.36 (KHTML, like Gecko) Chrome/85.0.4183.102 Safari/537.36",WebKit,Chrome,85.0.4183.102,Windows,10
75,1,"""",html-keyboard-response,4,3005,0.0-0.0-4.0-0.0,ff,26.842,387,1,ff,387,"""","""","""","""","""","""","""","""",904.5750001,<p style='font-size: 28px;'>We finished the calibration stage! We will now continue to the main task of this experiment.</p>                <p style='font-size: 28px;'><b>We remind you to make an effort to move as little as possible until the end of the task.</b></p>                <p style='font-size: 28px;'><b>Please read the following instructions carefully.</b></p>    <p style='font-size: 24px;'><i>Press the space bar to continue to the instructions</i></p>,"""",32,"""","""","""","""","""","""","""","""","""","""","""","""","""","""","""","""","""",10/7/2020 12:32,188.120.158.162,"Mozilla/5.0 (Windows NT 10.0; Win64; x64) AppleWebKit/537.36 (KHTML, like Gecko) Chrome/85.0.4183.102 Safari/537.36",WebKit,Chrome,85.0.4183.102,Windows,10
75,1,"""",html-keyboard-response,5,3192,0.0-0.0-4.0-1.0,ff,26.842,387,1,ff,387,"""","""","""","""","""","""","""","""",186.4,"<p style='font-size: 28px;' align='justify'>In this part you will be asked to find a single flickering object within a scene.    Each time you will be presented with one scene. This scene will be static, except for one single object that will be appearing and disappearing.    Your goal will be to detect this object as quickly and accurately as you can. We will ask you to place your finger over the space bar, and once you have found the object press the space bar <b>as quickly as possible.</b></p>    <p style='font-size: 28px;' align='justify'>For each scene, you will have 60 seconds to do so. After that you will be asked about the location of the object.</P>    <p style='font-size: 28px;' align='justify'>We will now continue with a short practice before starting the main task.</p>    <p style='font-size: 24px;'><i>Press the space bar to continue</i></p>","""",32,"""","""","""","""","""","""","""","""","""","""","""","""","""","""","""","""","""",10/7/2020 12:32,188.120.158.162,"Mozilla/5.0 (Windows NT 10.0; Win64; x64) AppleWebKit/537.36 (KHTML, like Gecko) Chrome/85.0.4183.102 Safari/537.36",WebKit,Chrome,85.0.4183.102,Windows,10
75,1,"""",animation,6,4036,0.0-1.0-0.0,ff,26.842,387,1,ff,387,"""","""","""","""","""","""","[{""stimulus"":""img/demo1_absent.jpg"",""time"":509.3899997882545}]","[{""key_press"":32,""rt"":121.60499999299645,""stimulus"":""},{""key_press"":32,""rt"":277.63500018045306,""stimulus"":""},{""key_press"":32,""rt"":839.5650000311434,""stimulus"":""img/demo1_absent.jpg""}]",121.7299998,1,o,"""","""","""","""","""","""","""","""","""","""","""","""","""","""","""","""","""","""",10/7/2020 12:32,188.120.158.162,"Mozilla/5.0 (Windows NT 10.0; Win64; x64) AppleWebKit/537.36 (KHTML, like Gecko) Chrome/85.0.4183.102 Safari/537.36",WebKit,Chrome,85.0.4183.102,Windows,10
75,1,"""",image-button-response,7,5006,0.0-1.0-1.0,ff,26.842,387,1,ff,387,"""","""","""","""","""","""","""","""",964.1,detection grids/demo1.jpg,"""","""",2,"""","""","""","""","""","""","""","""","""","""","""","""","""","""","""","""",10/7/2020 12:32,188.120.158.162,"Mozilla/5.0 (Windows NT 10.0; Win64; x64) AppleWebKit/537.36 (KHTML, like Gecko) Chrome/85.0.4183.102 Safari/537.36",WebKit,Chrome,85.0.4183.102,Windows,10
75,1,"""",image-button-response,8,5197,0.0-1.0-2.0,ff,26.842,387,1,ff,387,"""","""","""","""","""","""","""","""",187.6599998,detection grids/demo1.jpg,"""","""",2,"""","""","""","""","""","""","""","""","""","""","""","""","""","""","""","""",10/7/2020 12:32,188.120.158.162,"Mozilla/5.0 (Windows NT 10.0; Win64; x64) AppleWebKit/537.36 (KHTML, like Gecko) Chrome/85.0.4183.102 Safari/537.36",WebKit,Chrome,85.0.4183.102,Windows,10
75,1,"""",html-keyboard-response,9,5378,0.0-1.0-3.0-0.0,ff,26.842,387,1,ff,387,"""","""","""","""","""","""","""","""",180.3199998,"<p style='font-size: 28px;'>That was easy, right?</p>                <p style='font-size: 28px;'>Now let's have another practice. This time it will be a bit more difficult.</p>                <p style='font-size: 24px;'><i>Press the space bar to continue</i></p>","""",32,"""","""","""","""","""","""","""","""","""","""","""","""","""","""","""","""","""",10/7/2020 12:32,188.120.158.162,"Mozilla/5.0 (Windows NT 10.0; Win64; x64) AppleWebKit/537.36 (KHTML, like Gecko) Chrome/85.0.4183.102 Safari/537.36",WebKit,Chrome,85.0.4183.102,Windows,10
75,1,"""",animation,10,6004,0.0-1.0-4.0,ff,26.842,387,1,ff,387,"""","""","""","""","""","""","[{""stimulus"":""img/demo2_absent.jpg"",""time"":325.57000033557415},{""stimulus"":""blank"",""time"":574.0200001746416}]","[{""key_press"":32,""rt"":622.8100000880659,""stimulus"":""blank""}]",622.9150002,2,o,"""","""","""","""","""","""","""","""","""","""","""","""","""","""","""","""","""","""",10/7/2020 12:32,188.120.158.162,"Mozilla/5.0 (Windows NT 10.0; Win64; x64) AppleWebKit/537.36 (KHTML, like Gecko) Chrome/85.0.4183.102 Safari/537.36",WebKit,Chrome,85.0.4183.102,Windows,10
75,1,"""",image-keyboard-response,11,6396,0.0-1.0-5.0,ff,26.842,387,1,ff,387,"""","""","""","""","""","""","""","""",387.2749996,detection grids/demo2.jpg,"""",32,"""","""","""","""","""","""","""","""","""","""","""","""","""","""","""","""","""",10/7/2020 12:32,188.120.158.162,"Mozilla/5.0 (Windows NT 10.0; Win64; x64) AppleWebKit/537.36 (KHTML, like Gecko) Chrome/85.0.4183.102 Safari/537.36",WebKit,Chrome,85.0.4183.102,Windows,10
75,1,"""",image-button-response,12,7181,0.0-1.0-6.0,ff,26.842,387,1,ff,387,"""","""","""","""","""","""","""","""",784.1349998,detection grids/demo2.jpg,"""","""",2,"""","""","""","""","""","""","""","""","""","""","""","""","""","""","""","""",10/7/2020 12:32,188.120.158.162,"Mozilla/5.0 (Windows NT 10.0; Win64; x64) AppleWebKit/537.36 (KHTML, like Gecko) Chrome/85.0.4183.102 Safari/537.36",WebKit,Chrome,85.0.4183.102,Windows,10
75,1,"""",image-button-response,13,7325,0.0-1.0-7.0,ff,26.842,387,1,ff,387,"""","""","""","""","""","""","""","""",142.92,detection grids/demo2.jpg,"""","""",2,"""","""","""","""","""","""","""","""","""","""","""","""","""","""","""","""",10/7/2020 12:32,188.120.158.162,"Mozilla/5.0 (Windows NT 10.0; Win64; x64) AppleWebKit/537.36 (KHTML, like Gecko) Chrome/85.0.4183.102 Safari/537.36",WebKit,Chrome,85.0.4183.102,Windows,10
75,1,"""",html-keyboard-response,14,7724,0.0-1.0-8.0-0.0,ff,26.842,387,1,ff,387,"""","""","""","""","""","""","""","""",398.8299998,<p style='font-size: 28px;'>Great! You are now ready to continue to the main task.</p>                <p style='font-size: 28px;'>You will now be shown a series of similar trials one after another.</p>                <p style='font-size: 28px;'>It will take about 10-15 minutes until the next break.</p>                <p style='font-size: 28px;'>We ask you to keep your finger over the space bar and stay concentrated the whole time.</p>                <p style='font-size: 24px;'><i>Press the space bar when ready</i></p>,"""",32,"""","""","""","""","""","""","""","""","""","""","""","""","""","""","""","""","""",10/7/2020 12:32,188.120.158.162,"Mozilla/5.0 (Windows NT 10.0; Win64; x64) AppleWebKit/537.36 (KHTML, like Gecko) Chrome/85.0.4183.102 Safari/537.36",WebKit,Chrome,85.0.4183.102,Windows,10
75,1,"""",call-function,15,7728,0.0-2.0-0.0,ff,26.842,387,1,ff,387,[object Object],"""","""","""","""","""","""","""","""","""","""","""","""","""","""","""","""","""","""","""","""","""","""","""","""","""","""","""","""",10/7/2020 12:32,188.120.158.162,"Mozilla/5.0 (Windows NT 10.0; Win64; x64) AppleWebKit/537.36 (KHTML, like Gecko) Chrome/85.0.4183.102 Safari/537.36",WebKit,Chrome,85.0.4183.102,Windows,10
75,1,"""",html-keyboard-response,16,7732,0.0-2.0-1.0,ff,26.842,387,1,ff,387,[object Object],"""","""","""","""","""","""","""","""","""","""","""","""","""","""","""","""","""","""","""","""","""","""","""","""","""","""","""","""",10/7/2020 12:32,188.120.158.162,"Mozilla/5.0 (Windows NT 10.0; Win64; x64) AppleWebKit/537.36 (KHTML, like Gecko) Chrome/85.0.4183.102 Safari/537.36",WebKit,Chrome,85.0.4183.102,Windows,10
75,1,"""",html-keyboard-response,17,8744,0.0-2.0-2.0,ff,26.842,387,1,ff,387,"""","""","""","""","""","""","""","""",null,"<p style=""font-size: 48px;"">ready?</p>","""",null,"""","""","""","""","""","""","""","""","""","""","""","""","""","""","""","""","""",10/7/2020 12:32,188.120.158.162,"Mozilla/5.0 (Windows NT 10.0; Win64; x64) AppleWebKit/537.36 (KHTML, like Gecko) Chrome/85.0.4183.102 Safari/537.36",WebKit,Chrome,85.0.4183.102,Windows,10
75,1,"""",html-keyboard-response,18,9751,0.0-2.0-3.0,ff,26.842,387,1,ff,387,"""","""","""","""","""","""","""","""",null,"<p style=""font-size: 48px;"">ready?</p>","""",null,"""","""","""","""","""","""","""","""","""","""","""","""","""","""","""","""","""",10/7/2020 12:32,188.120.158.162,"Mozilla/5.0 (Windows NT 10.0; Win64; x64) AppleWebKit/537.36 (KHTML, like Gecko) Chrome/85.0.4183.102 Safari/537.36",WebKit,Chrome,85.0.4183.102,Windows,10
75,1,"""",html-keyboard-response,19,10756,0.0-2.0-4.0,ff,26.842,387,1,ff,387,"""","""","""","""","""","""","""","""",null,"<p style=""font-size: 48px;"">ready?</p>","""",null,"""","""","""","""","""","""","""","""","""","""","""","""","""","""","""","""","""",10/7/2020 12:32,188.120.158.162,"Mozilla/5.0 (Windows NT 10.0; Win64; x64) AppleWebKit/537.36 (KHTML, like Gecko) Chrome/85.0.4183.102 Safari/537.36",WebKit,Chrome,85.0.4183.102,Windows,10
75,1,TRUE,animation,20,11378,0.0-2.0-5.0,ff,26.842,387,1,ff,387,"""","""","""","""","""","""","[{""stimulus"":""img/01_L_filler_absent.jpg"",""time"":326.65499998256564},{""stimulus"":""blank"",""time"":573.5999997705221}]","[{""key_press"":32,""rt"":621.3949997909367,""stimulus"":""blank""}]",621.45,1,L,"""","""","1,1","""","""","""","""","""","""","""","""","""","""","""","""","""","""","""",10/7/2020 12:32,188.120.158.162,"Mozilla/5.0 (Windows NT 10.0; Win64; x64) AppleWebKit/537.36 (KHTML, like Gecko) Chrome/85.0.4183.102 Safari/537.36",WebKit,Chrome,85.0.4183.102,Windows,10
75,1,"""",image-button-response,21,12045,0.0-2.0-6.0,ff,26.842,387,1,ff,387,"""","""","""","""","""","""","""","""",663.1300002,detection grids/01L.jpg,"""","""",1,"""",TRUE,"""","""","""","""","""","""","""","""","""","""","""","""","""","""",10/7/2020 12:32,188.120.158.162,"Mozilla/5.0 (Windows NT 10.0; Win64; x64) AppleWebKit/537.36 (KHTML, like Gecko) Chrome/85.0.4183.102 Safari/537.36",WebKit,Chrome,85.0.4183.102,Windows,10
75,1,"""",image-button-response,22,12221,0.0-2.0-7.0,ff,26.842,387,1,ff,387,"""","""","""","""","""","""","""","""",174.6350001,detection grids/01L.jpg,"""","""",1,"""",TRUE,"""","""","""","""","""","""","""","""","""","""","""","""","""","""",10/7/2020 12:32,188.120.158.162,"Mozilla/5.0 (Windows NT 10.0; Win64; x64) AppleWebKit/537.36 (KHTML, like Gecko) Chrome/85.0.4183.102 Safari/537.36",WebKit,Chrome,85.0.4183.102,Windows,10
75,1,"""",html-keyboard-response,23,12709,0.0-3.0-0.0,ff,26.842,387,1,ff,387,"""","""","""","""","""","""","""","""",484.315,"<p style='font-size: 28px;'>First part is done!</p>    <p style='font-size: 28px;'>You've finished more than half of the study, great job!</p>    <p style='font-size: 24px;' align='center'><i>Press the space bar to continue.</i></p>","""",32,"""","""","""","""","""","""","""","""","""","""","""","""","""","""","""","""","""",10/7/2020 12:32,188.120.158.162,"Mozilla/5.0 (Windows NT 10.0; Win64; x64) AppleWebKit/537.36 (KHTML, like Gecko) Chrome/85.0.4183.102 Safari/537.36",WebKit,Chrome,85.0.4183.102,Windows,10
75,1,"""",html-keyboard-response,24,14579,0.0-3.0-1.0,ff,26.842,387,1,ff,387,"""","""","""","""","""","""","""","""",1869.055,<p style='font-size: 28px;'>We will now go on to the second task.</p>    <p style='font-size: 28px;'>Please read the following instructions carefully.</p>    <p style='font-size: 24px;' align='center'><i>Press the space bar to continue.</i></p>,"""",32,"""","""","""","""","""","""","""","""","""","""","""","""","""","""","""","""","""",10/7/2020 12:32,188.120.158.162,"Mozilla/5.0 (Windows NT 10.0; Win64; x64) AppleWebKit/537.36 (KHTML, like Gecko) Chrome/85.0.4183.102 Safari/537.36",WebKit,Chrome,85.0.4183.102,Windows,10
75,1,"""",html-keyboard-response,25,15446,0.0-3.0-2.0,ff,26.842,387,1,ff,387,"""","""","""","""","""","""","""","""",866.8,"<div class = 'center'><p style='font-size: 28px;'>In this task you will be presented with rapidly       changing patterns of rectangles. Through these rectangles faces will appear. Your task will be to indicate the location of       the faces, or any part of them, as soon as they appear.</p>      <p style='font-size: 24px;' align='center'><i>Press the space bar to continue.</i></p></div>","""",32,"""","""","""","""","""","""","""","""","""","""","""","""","""","""","""","""","""",10/7/2020 12:32,188.120.158.162,"Mozilla/5.0 (Windows NT 10.0; Win64; x64) AppleWebKit/537.36 (KHTML, like Gecko) Chrome/85.0.4183.102 Safari/537.36",WebKit,Chrome,85.0.4183.102,Windows,10
75,1,"""",html-keyboard-response,26,15762,0.0-3.0-3.0,ff,26.842,387,1,ff,387,"""","""","""","""","""","""","""","""",314.6050004,"<div class = 'center'><p style='font-size: 28px;'>If a face appeared in the right half       of the screen, press the right key. If a face appeared in the left half       of the screen, press the left key.</p>      <p style='font-size: 24px;' align='center'><i>Press the space bar to continue.</i></p></div>","""",32,"""","""","""","""","""","""","""","""","""","""","""","""","""","""","""","""","""",10/7/2020 12:32,188.120.158.162,"Mozilla/5.0 (Windows NT 10.0; Win64; x64) AppleWebKit/537.36 (KHTML, like Gecko) Chrome/85.0.4183.102 Safari/537.36",WebKit,Chrome,85.0.4183.102,Windows,10
75,1,"""",html-keyboard-response,27,15952,0.0-3.0-4.0,ff,26.842,387,1,ff,387,"""","""","""","""","""","""","""","""",188.995,<div class = 'center'><p style='font-size: 28px;'>Please perform this task as accurately       and quickly as you can.</p>      <p style='font-size: 24px;' align='center'><i>Press the space bar to continue.</i></p></div>,"""",32,"""","""","""","""","""","""","""","""","""","""","""","""","""","""","""","""","""",10/7/2020 12:32,188.120.158.162,"Mozilla/5.0 (Windows NT 10.0; Win64; x64) AppleWebKit/537.36 (KHTML, like Gecko) Chrome/85.0.4183.102 Safari/537.36",WebKit,Chrome,85.0.4183.102,Windows,10
75,1,"""",html-keyboard-response,28,16126,0.0-3.0-5.0,ff,26.842,387,1,ff,387,"""","""","""","""","""","""","""","""",174.2699998,"<div class = 'center'><p style='font-size: 28px;'>During the task, please focus your gaze at       the plus sign in the middle.<br>Even though the faces appear to the left        and right of the plus sign, it is important that you look at the plus         sign at all times.</p>        <p style='font-size: 24px;' align='center'></i>Press the space bar to continue.</i></p></div>","""",32,"""","""","""","""","""","""","""","""","""","""","""","""","""","""","""","""","""",10/7/2020 12:32,188.120.158.162,"Mozilla/5.0 (Windows NT 10.0; Win64; x64) AppleWebKit/537.36 (KHTML, like Gecko) Chrome/85.0.4183.102 Safari/537.36",WebKit,Chrome,85.0.4183.102,Windows,10
75,1,"""",html-keyboard-response,29,16300,0.0-3.0-6.0,ff,26.842,387,1,ff,387,"""","""","""","""","""","""","""","""",173.0550001,<div class = 'center'><p style='font-size: 28px;'>We will start with a short practice.</p>        <p style='font-size: 24px;' align='center'></i>Press the space bar to continue.</i></p></div>,"""",32,"""","""","""","""","""","""","""","""","""","""","""","""","""","""","""","""","""",10/7/2020 12:32,188.120.158.162,"Mozilla/5.0 (Windows NT 10.0; Win64; x64) AppleWebKit/537.36 (KHTML, like Gecko) Chrome/85.0.4183.102 Safari/537.36",WebKit,Chrome,85.0.4183.102,Windows,10
75,1,"""",html-keyboard-response,30,18202,0.0-3.0-7.0,ff,26.842,387,1,ff,387,"""","""","""","""","""","""","""","""",1901.26,<div class='center'>      <img src='keys.jpg'></img>      <p style='font-size: 28px;'>Place your fingers on the 'D' and 'K' keys as shown in the picture.</p>       <p style='font-size: 28px;'>If a face appears on the right side press the right key (K).</p>      <p style='font-size: 28px;'>If a face appears on the left side press the left key (D).</p>      <p>Press either one of these keys to start the practice.</p></div>,"""",75,"""","""","""","""","""","""","""","""","""","""","""","""","""","""","""","""","""",10/7/2020 12:32,188.120.158.162,"Mozilla/5.0 (Windows NT 10.0; Win64; x64) AppleWebKit/537.36 (KHTML, like Gecko) Chrome/85.0.4183.102 Safari/537.36",WebKit,Chrome,85.0.4183.102,Windows,10
75,1,"""",html-keyboard-response,31,18207,0.0-4.0-0.0,ff,26.842,387,1,ff,387,"""","""","""","""","""","""","""","""",null,"""","""",null,"""","""","""","""","""","""","""","""","""","""","""","""","""","""","""","""","""",10/7/2020 12:32,188.120.158.162,"Mozilla/5.0 (Windows NT 10.0; Win64; x64) AppleWebKit/537.36 (KHTML, like Gecko) Chrome/85.0.4183.102 Safari/537.36",WebKit,Chrome,85.0.4183.102,Windows,10
75,1,"""",bRMS,32,20544,0.0-4.0-1.0-0.0,ff,26.842,387,1,ff,387,"""","""","""","""","""","""","""","""",1407.85,faces/training/p_4.jpg,1,75,"""","""","""",1,[object Object],0,0,1.60207E+12,0,15,1,5,0.4,"""","""","""","""",10/7/2020 12:32,188.120.158.162,"Mozilla/5.0 (Windows NT 10.0; Win64; x64) AppleWebKit/537.36 (KHTML, like Gecko) Chrome/85.0.4183.102 Safari/537.36",WebKit,Chrome,85.0.4183.102,Windows,10
75,1,"""",bRMS,33,22572,0.0-4.0-1.0-0.1,ff,26.842,387,1,ff,387,"""","""","""","""","""","""","""","""",1093.715,faces/training/p_1.jpg,0,68,"""","""","""",1,[object Object],0,0,1.60207E+12,0,15,1,5,0.4,"""","""","""","""",10/7/2020 12:32,188.120.158.162,"Mozilla/5.0 (Windows NT 10.0; Win64; x64) AppleWebKit/537.36 (KHTML, like Gecko) Chrome/85.0.4183.102 Safari/537.36",WebKit,Chrome,85.0.4183.102,Windows,10
75,1,"""",bRMS,34,24600,0.0-4.0-1.0-0.2,ff,26.842,387,1,ff,387,"""","""","""","""","""","""","""","""",1094.11,faces/training/p_2.jpg,0,68,"""","""","""",1,[object Object],0,0,1.60207E+12,0,15,1,5,0.4,"""","""","""","""",10/7/2020 12:32,188.120.158.162,"Mozilla/5.0 (Windows NT 10.0; Win64; x64) AppleWebKit/537.36 (KHTML, like Gecko) Chrome/85.0.4183.102 Safari/537.36",WebKit,Chrome,85.0.4183.102,Windows,10
75,1,"""",bRMS,35,26891,0.0-4.0-1.0-0.3,ff,26.842,387,1,ff,387,"""","""","""","""","""","""","""","""",1357.845,faces/training/p_6.jpg,1,75,"""","""","""",1,[object Object],0,0,1.60207E+12,0,15,1,5,0.4,"""","""","""","""",10/7/2020 12:32,188.120.158.162,"Mozilla/5.0 (Windows NT 10.0; Win64; x64) AppleWebKit/537.36 (KHTML, like Gecko) Chrome/85.0.4183.102 Safari/537.36",WebKit,Chrome,85.0.4183.102,Windows,10
75,1,"""",bRMS,36,29862,0.0-4.0-1.0-0.4,ff,26.842,387,1,ff,387,"""","""","""","""","""","""","""","""",2042.25,faces/training/p_0.jpg,1,75,"""","""","""",1,[object Object],0,0,1.60207E+12,0,15,1,5,0.4,"""","""","""","""",10/7/2020 12:32,188.120.158.162,"Mozilla/5.0 (Windows NT 10.0; Win64; x64) AppleWebKit/537.36 (KHTML, like Gecko) Chrome/85.0.4183.102 Safari/537.36",WebKit,Chrome,85.0.4183.102,Windows,10
75,1,"""",bRMS,37,31943,0.0-4.0-1.0-0.5,ff,26.842,387,1,ff,387,"""","""","""","""","""","""","""","""",1153.205,faces/training/p_5.jpg,0,68,"""","""","""",1,[object Object],0,0,1.60207E+12,0,15,1,5,0.4,"""","""","""","""",10/7/2020 12:32,188.120.158.162,"Mozilla/5.0 (Windows NT 10.0; Win64; x64) AppleWebKit/537.36 (KHTML, like Gecko) Chrome/85.0.4183.102 Safari/537.36",WebKit,Chrome,85.0.4183.102,Windows,10
75,1,"""",bRMS,38,33955,0.0-4.0-1.0-0.6,ff,26.842,387,1,ff,387,"""","""","""","""","""","""","""","""",1081.99,faces/training/p_3.jpg,0,68,"""","""","""",1,[object Object],0,0,1.60207E+12,0,15,1,5,0.4,"""","""","""","""",10/7/2020 12:32,188.120.158.162,"Mozilla/5.0 (Windows NT 10.0; Win64; x64) AppleWebKit/537.36 (KHTML, like Gecko) Chrome/85.0.4183.102 Safari/537.36",WebKit,Chrome,85.0.4183.102,Windows,10
75,1,"""",bRMS,39,36194,0.0-4.0-1.0-0.7,ff,26.842,387,1,ff,387,"""","""","""","""","""","""","""","""",1304.355,faces/training/p_7.jpg,0,68,"""","""","""",1,[object Object],0,0,1.60207E+12,0,15,1,5,0.4,"""","""","""","""",10/7/2020 12:32,188.120.158.162,"Mozilla/5.0 (Windows NT 10.0; Win64; x64) AppleWebKit/537.36 (KHTML, like Gecko) Chrome/85.0.4183.102 Safari/537.36",WebKit,Chrome,85.0.4183.102,Windows,10
75,1,"""",html-keyboard-response,40,53956,0.0-5.0-0.0,ff,26.842,387,1,ff,387,"""","""","""","""","""","""","""","""",17756.125,"<div class = 'center'><p style='font-size: 28px;'>You have completed the practice block.</p>  <p style='font-size: 28px;'>You will now continue with the same task. The task may now be more   difficult. It will take about 5-10 minutes, and you will have a short break in the half way point. </p>    <p style='font-size: 24px;'>Press either the 'D' or the 'K' keys to continue.</p></div>","""",75,"""","""","""","""","""","""","""","""","""","""","""","""","""","""","""","""","""",10/7/2020 12:32,188.120.158.162,"Mozilla/5.0 (Windows NT 10.0; Win64; x64) AppleWebKit/537.36 (KHTML, like Gecko) Chrome/85.0.4183.102 Safari/537.36",WebKit,Chrome,85.0.4183.102,Windows,10
75,1,"""",html-keyboard-response,41,57661,0.0-5.0-1.0,ff,26.842,387,1,ff,387,"""","""","""","""","""","""","""","""",3704.405,"<div class = 'center'><p style='font-size: 28px;'>During the task, please focus your gaze at   the plus sign in the middle.<br>Even though the faces appear to the left    and right of the plus sign, it is important that you look at the plus     sign at all times.</p>    <p style='font-size: 24px;'>Press either the 'D' or the 'K' keys to continue.</p></div>","""",75,"""","""","""","""","""","""","""","""","""","""","""","""","""","""","""","""","""",10/7/2020 12:32,188.120.158.162,"Mozilla/5.0 (Windows NT 10.0; Win64; x64) AppleWebKit/537.36 (KHTML, like Gecko) Chrome/85.0.4183.102 Safari/537.36",WebKit,Chrome,85.0.4183.102,Windows,10
75,1,"""",bRMS,42,61260,0.0-6.0-0.0,ff,26.842,387,1,ff,387,"""","""","""","""","""","""","""","""",2665.705,faces/1.jpg,0,68,"""","""","""",1,[object Object],0,0,1.60207E+12,0,15,1,5,0.4,100,900,1,"""",10/7/2020 12:32,188.120.158.162,"Mozilla/5.0 (Windows NT 10.0; Win64; x64) AppleWebKit/537.36 (KHTML, like Gecko) Chrome/85.0.4183.102 Safari/537.36",WebKit,Chrome,85.0.4183.102,Windows,10
75,1,"""",call-function,43,61264,0.0-7.0,ff,26.842,387,1,ff,387,"[{""timestamp"":4414.574999827892,""zoom_ratio"":1.75},{""timestamp"":6572.369999717921,""zoom_ratio"":1.75}]","""","""","""","""","""","""","""","""","""","""","""","""","""","""","""","""","""","""","""","""","""","""","""","""","""","""","""","""",10/7/2020 12:32,188.120.158.162,"Mozilla/5.0 (Windows NT 10.0; Win64; x64) AppleWebKit/537.36 (KHTML, like Gecko) Chrome/85.0.4183.102 Safari/537.36",WebKit,Chrome,85.0.4183.102,Windows,10
75,1,"""",call-function,44,61265,0.0-8.0,ff,26.842,387,1,ff,387,"[{""event"":""fullscreenenter"",""trial"":0,""time"":1121}]","""","""","""","""","""","""","""","""","""","""","""","""","""","""","""","""","""","""","""","""","""","""","""","""","""","""","""","""",10/7/2020 12:32,188.120.158.162,"Mozilla/5.0 (Windows NT 10.0; Win64; x64) AppleWebKit/537.36 (KHTML, like Gecko) Chrome/85.0.4183.102 Safari/537.36",WebKit,Chrome,85.0.4183.102,Windows,10
75,1,"""",call-function,45,61265,0.0-9.0,ff,26.842,387,1,ff,387,"{""assignmentId"":"",""hitId"":"",""workerId"":"",""turkSubmitTo"":"",""previewMode"":false,""outsideTurk"":true}","""","""","""","""","""","""","""","""","""","""","""","""","""","""","""","""","""","""","""","""","""","""","""","""","""","""","""","""",10/7/2020 12:32,188.120.158.162,"Mozilla/5.0 (Windows NT 10.0; Win64; x64) AppleWebKit/537.36 (KHTML, like Gecko) Chrome/85.0.4183.102 Safari/537.36",WebKit,Chrome,85.0.4183.102,Windows,10
75,1,"""",html-keyboard-response,46,62905,0.0-10.0-0.0,ff,26.842,387,1,ff,387,"""","""","""","""","""","""","""","""",1639.19,<div class='center'><p style='font-size: 28px;'>You have completed this part of the study!</p>                <p style='font-size: 28px;'>You will now answer several questions. Please answer them sincerely.</p>                 <p style='font-size: 28px;'>We remind you that your answers are completely anonymous.</p>                <p style='font-size: 24px;'><i>Press the space bar to continue</i></p></div>,"""",32,"""","""","""","""","""","""","""","""","""","""","""","""","""","""","""","""","""",10/7/2020 12:32,188.120.158.162,"Mozilla/5.0 (Windows NT 10.0; Win64; x64) AppleWebKit/537.36 (KHTML, like Gecko) Chrome/85.0.4183.102 Safari/537.36",WebKit,Chrome,85.0.4183.102,Windows,10
75,1,"""",survey-multi-choice,47,67373,0.0-10.0-1.0,ff,26.842,387,1,ff,387,"""","""","""","""","""","""","""","{""gender"":""Male"",""hand"":""Right"",""native"":""Yes""}",4462.965,"""","""","""","""","""","""","""","""","""","""","""","""","""","""","""","""","""","""","""","[0,1,2]",10/7/2020 12:32,188.120.158.162,"Mozilla/5.0 (Windows NT 10.0; Win64; x64) AppleWebKit/537.36 (KHTML, like Gecko) Chrome/85.0.4183.102 Safari/537.36",WebKit,Chrome,85.0.4183.102,Windows,10
75,1,"""",survey-text,48,69878,0.0-10.0-2.0,ff,26.842,387,1,ff,387,"""","""","""","""","""","""","""","{""age"":""28""}",2498.31,"""","""","""","""","""","""","""","""","""","""","""","""","""","""","""","""","""","""","""","""",10/7/2020 12:32,188.120.158.162,"Mozilla/5.0 (Windows NT 10.0; Win64; x64) AppleWebKit/537.36 (KHTML, like Gecko) Chrome/85.0.4183.102 Safari/537.36",WebKit,Chrome,85.0.4183.102,Windows,10
75,1,"""",survey-text,49,71893,0.0-10.0-3.0,ff,26.842,387,1,ff,387,"""","""","""","""","""","""","""","{""add"":""no""}",2011.115,"""","""","""","""","""","""","""","""","""","""","""","""","""","""","""","""","""","""","""","""",10/7/2020 12:32,188.120.158.162,"Mozilla/5.0 (Windows NT 10.0; Win64; x64) AppleWebKit/537.36 (KHTML, like Gecko) Chrome/85.0.4183.102 Safari/537.36",WebKit,Chrome,85.0.4183.102,Windows,10
75,1,"""",survey-likert,50,73445,0.0-10.0-4.0,ff,26.842,387,1,ff,387,"""","""","""","""","""","""","""","{""fluency"":2}",1550.01,"""","""","""","""","""","""","""","""","""","""","""","""","""","""","""","""","""","""","""",[0],10/7/2020 12:32,188.120.158.162,"Mozilla/5.0 (Windows NT 10.0; Win64; x64) AppleWebKit/537.36 (KHTML, like Gecko) Chrome/85.0.4183.102 Safari/537.36",WebKit,Chrome,85.0.4183.102,Windows,10
75,1,"""",survey-likert,51,76860,0.0-10.0-5.0,ff,26.842,387,1,ff,387,"""","""","""","""","""","""","""","{""instructions_1"":3}",3410.31,"""","""","""","""","""","""","""","""","""","""","""","""","""","""","""","""","""","""","""",[0],10/7/2020 12:32,188.120.158.162,"Mozilla/5.0 (Windows NT 10.0; Win64; x64) AppleWebKit/537.36 (KHTML, like Gecko) Chrome/85.0.4183.102 Safari/537.36",WebKit,Chrome,85.0.4183.102,Windows,10
75,1,"""",survey-text,52,79269,0.0-10.0-6.0,ff,26.842,387,1,ff,387,"""","""","""","""","""","""","""","{""strategy_1"":""bggfdadfg""}",2404.14,"""","""","""","""","""","""","""","""","""","""","""","""","""","""","""","""","""","""","""","""",10/7/2020 12:32,188.120.158.162,"Mozilla/5.0 (Windows NT 10.0; Win64; x64) AppleWebKit/537.36 (KHTML, like Gecko) Chrome/85.0.4183.102 Safari/537.36",WebKit,Chrome,85.0.4183.102,Windows,10
75,1,"""",survey-likert,53,81357,0.0-10.0-7.0,ff,26.842,387,1,ff,387,"""","""","""","""","""","""","""","{""instructions_2"":2}",2083.495,"""","""","""","""","""","""","""","""","""","""","""","""","""","""","""","""","""","""","""",[0],10/7/2020 12:32,188.120.158.162,"Mozilla/5.0 (Windows NT 10.0; Win64; x64) AppleWebKit/537.36 (KHTML, like Gecko) Chrome/85.0.4183.102 Safari/537.36",WebKit,Chrome,85.0.4183.102,Windows,10
75,1,"""",survey-text,54,82908,0.0-10.0-8.0,ff,26.842,387,1,ff,387,"""","""","""","""","""","""","""","{""strategy_2"":""dfgdfh""}",1546.98,"""","""","""","""","""","""","""","""","""","""","""","""","""","""","""","""","""","""","""","""",10/7/2020 12:32,188.120.158.162,"Mozilla/5.0 (Windows NT 10.0; Win64; x64) AppleWebKit/537.36 (KHTML, like Gecko) Chrome/85.0.4183.102 Safari/537.36",WebKit,Chrome,85.0.4183.102,Windows,10
75,1,"""",survey-text,55,85789,0.0-10.0-9.0,ff,26.842,387,1,ff,387,"""","""","""","""","""","""","""","{""comments"":""gfdadfaghhdfh""}",2875.83,"""","""","""","""","""","""","""","""","""","""","""","""","""","""","""","""","""","""","""","""",10/7/2020 12:32,188.120.158.162,"Mozilla/5.0 (Windows NT 10.0; Win64; x64) AppleWebKit/537.36 (KHTML, like Gecko) Chrome/85.0.4183.102 Safari/537.36",WebKit,Chrome,85.0.4183.102,Windows,10
75,1,"""",html-button-response,56,93389,0.0-11.0,ff,26.842,387,1,ff,387,"""","""","""","""","""","""","""","""",7598.52,<p><b>xrVESi7LQxYmku5</b></p>,"""","""",0,"""","""","""","""","""","""","""","""","""","""","""","""","""","""","""","""",10/7/2020 12:32,188.120.158.162,"Mozilla/5.0 (Windows NT 10.0; Win64; x64) AppleWebKit/537.36 (KHTML, like Gecko) Chrome/85.0.4183.102 Safari/537.36",WebKit,Chrome,85.0.4183.102,Windows,10
76,1,TRUE,fullscreen,0,3097,0.0-0.0-0.0,A2FGKKWP33DFWS,43.055,387,2,A2FGKKWP33DFWS,387,"""","""","""","""","""","""","""","""","""","""","""","""","""","""","""","""","""","""","""","""","""","""","""","""","""",10/7/2020 12:55,69.254.67.230,"Mozilla/5.0 (Windows NT 10.0; Win64; x64) AppleWebKit/537.36 (KHTML, like Gecko) Chrome/85.0.4183.121 Safari/537.36",WebKit,Chrome,85.0.4183.121,Windows,10,,,,
76,1,"""",call-function,1,3100,0.0-0.0-1.0,A2FGKKWP33DFWS,43.055,387,2,A2FGKKWP33DFWS,387,"""","""","""","""","""","""","""","""","""","""","""","""","""","""","""","""","""","""","""","""","""","""","""","""","""",10/7/2020 12:55,69.254.67.230,"Mozilla/5.0 (Windows NT 10.0; Win64; x64) AppleWebKit/537.36 (KHTML, like Gecko) Chrome/85.0.4183.121 Safari/537.36",WebKit,Chrome,85.0.4183.121,Windows,10,,,,
76,1,"""",new-resize,2,3101,0.0-0.0-2.0,A2FGKKWP33DFWS,43.055,387,2,A2FGKKWP33DFWS,387,"""",387,0.764444444,3.375,114.6666667,150,"""","""","""","""","""","""","""","""","""","""","""","""","""","""","""","""","""","""","""",10/7/2020 12:55,69.254.67.230,"Mozilla/5.0 (Windows NT 10.0; Win64; x64) AppleWebKit/537.36 (KHTML, like Gecko) Chrome/85.0.4183.121 Safari/537.36",WebKit,Chrome,85.0.4183.121,Windows,10,,,,
76,1,"""",animation,3,3104,0.0-0.0-3.0,A2FGKKWP33DFWS,43.055,387,2,A2FGKKWP33DFWS,387,"""","""","""","""","""","""","[{""stimulus"":""img/demo1_absent.jpg"",""time"":2.140000000508735}]",[],"""",1,o,"""","""","""","""","""","""","""","""","""","""","""","""","""","""",10/7/2020 12:55,69.254.67.230,"Mozilla/5.0 (Windows NT 10.0; Win64; x64) AppleWebKit/537.36 (KHTML, like Gecko) Chrome/85.0.4183.121 Safari/537.36",WebKit,Chrome,85.0.4183.121,Windows,10,,,,
76,1,"""",html-keyboard-response,4,12971,0.0-0.0-4.0-0.0,A2FGKKWP33DFWS,43.055,387,2,A2FGKKWP33DFWS,387,"""","""","""","""","""","""","""","""",9866.69,<p style='font-size: 28px;'>We finished the calibration stage! We will now continue to the main task of this experiment.</p>                <p style='font-size: 28px;'><b>We remind you to make an effort to move as little as possible until the end of the task.</b></p>                <p style='font-size: 28px;'><b>Please read the following instructions carefully.</b></p>    <p style='font-size: 24px;'><i>Press the space bar to continue to the instructions</i></p>,"""",32,"""","""","""","""","""","""","""","""","""","""","""","""","""",10/7/2020 12:55,69.254.67.230,"Mozilla/5.0 (Windows NT 10.0; Win64; x64) AppleWebKit/537.36 (KHTML, like Gecko) Chrome/85.0.4183.121 Safari/537.36",WebKit,Chrome,85.0.4183.121,Windows,10,,,,
76,1,"""",html-keyboard-response,5,32983,0.0-0.0-4.0-1.0,A2FGKKWP33DFWS,43.055,387,2,A2FGKKWP33DFWS,387,"""","""","""","""","""","""","""","""",20010.235,"<p style='font-size: 28px;' align='justify'>In this part you will be asked to find a single flickering object within a scene.    Each time you will be presented with one scene. This scene will be static, except for one single object that will be appearing and disappearing.    Your goal will be to detect this object as quickly and accurately as you can. We will ask you to place your finger over the space bar, and once you have found the object press the space bar <b>as quickly as possible.</b></p>    <p style='font-size: 28px;' align='justify'>For each scene, you will have 60 seconds to do so. After that you will be asked about the location of the object.</P>    <p style='font-size: 28px;' align='justify'>We will now continue with a short practice before starting the main task.</p>    <p style='font-size: 24px;'><i>Press the space bar to continue</i></p>","""",32,"""","""","""","""","""","""","""","""","""","""","""","""","""",10/7/2020 12:55,69.254.67.230,"Mozilla/5.0 (Windows NT 10.0; Win64; x64) AppleWebKit/537.36 (KHTML, like Gecko) Chrome/85.0.4183.121 Safari/537.36",WebKit,Chrome,85.0.4183.121,Windows,10,,,,
76,1,"""",animation,6,38753,0.0-1.0-0.0,A2FGKKWP33DFWS,43.055,387,2,A2FGKKWP33DFWS,387,"""","""","""","""","""","""","[{""stimulus"":""img/demo1_absent.jpg"",""time"":501.6150000010384},{""stimulus"":""img/demo1_absent.jpg"",""time"":1002.5200000018231},{""stimulus"":""img/demo1_present.jpg"",""time"":1501.6099999993457},{""stimulus"":""img/demo1_present.jpg"",""time"":2001.3849999995728},{""stimulus"":""img/demo1_absent.jpg"",""time"":2502.29500000205},{""stimulus"":""img/demo1_absent.jpg"",""time"":3002.3050000017975},{""stimulus"":""img/demo1_present.jpg"",""time"":3501.4699999992445},{""stimulus"":""img/demo1_present.jpg"",""time"":4002.4450000018987},{""stimulus"":""img/demo1_absent.jpg"",""time"":4501.285000002099},{""stimulus"":""img/demo1_absent.jpg"",""time"":5001.619999999093},{""stimulus"":""img/demo1_present.jpg"",""time"":5502.0150000018475}]","[{""key_press"":32,""rt"":5766.370000001189,""stimulus"":""img/demo1_present.jpg""}]",5766.54,1,o,"""","""","""","""","""","""","""","""","""","""","""","""","""","""",10/7/2020 12:55,69.254.67.230,"Mozilla/5.0 (Windows NT 10.0; Win64; x64) AppleWebKit/537.36 (KHTML, like Gecko) Chrome/85.0.4183.121 Safari/537.36",WebKit,Chrome,85.0.4183.121,Windows,10,,,,
76,1,"""",image-button-response,7,45891,0.0-1.0-1.0,A2FGKKWP33DFWS,43.055,387,2,A2FGKKWP33DFWS,387,"""","""","""","""","""","""","""","""",7135.02,detection grids/demo1.jpg,"""","""",2,"""","""","""","""","""","""","""","""","""","""","""","""",10/7/2020 12:55,69.254.67.230,"Mozilla/5.0 (Windows NT 10.0; Win64; x64) AppleWebKit/537.36 (KHTML, like Gecko) Chrome/85.0.4183.121 Safari/537.36",WebKit,Chrome,85.0.4183.121,Windows,10,,,,
76,1,"""",image-button-response,8,48775,0.0-1.0-2.0,A2FGKKWP33DFWS,43.055,387,2,A2FGKKWP33DFWS,387,"""","""","""","""","""","""","""","""",2882.625,detection grids/demo1.jpg,"""","""",2,"""","""","""","""","""","""","""","""","""","""","""","""",10/7/2020 12:55,69.254.67.230,"Mozilla/5.0 (Windows NT 10.0; Win64; x64) AppleWebKit/537.36 (KHTML, like Gecko) Chrome/85.0.4183.121 Safari/537.36",WebKit,Chrome,85.0.4183.121,Windows,10,,,,
76,1,"""",html-keyboard-response,9,51205,0.0-1.0-3.0-0.0,A2FGKKWP33DFWS,43.055,387,2,A2FGKKWP33DFWS,387,"""","""","""","""","""","""","""","""",2427.635,"<p style='font-size: 28px;'>That was easy, right?</p>                <p style='font-size: 28px;'>Now let's have another practice. This time it will be a bit more difficult.</p>                <p style='font-size: 24px;'><i>Press the space bar to continue</i></p>","""",32,"""","""","""","""","""","""","""","""","""","""","""","""","""",10/7/2020 12:55,69.254.67.230,"Mozilla/5.0 (Windows NT 10.0; Win64; x64) AppleWebKit/537.36 (KHTML, like Gecko) Chrome/85.0.4183.121 Safari/537.36",WebKit,Chrome,85.0.4183.121,Windows,10,,,,
76,1,"""",animation,10,74993,0.0-1.0-4.0,A2FGKKWP33DFWS,43.055,387,2,A2FGKKWP33DFWS,387,"""","""","""","""","""","""","[{""stimulus"":""img/demo2_absent.jpg"",""time"":321.4049999987765},{""stimulus"":""blank"",""time"":562.9250000019965},{""stimulus"":""img/demo2_absent.jpg"",""time"":641.4699999986624},{""stimulus"":""blank"",""time"":883.2800000018324},{""stimulus"":""img/demo2_present.jpg"",""time"":961.155000000872},{""stimulus"":""blank"",""time"":1202.8800000007323},{""stimulus"":""img/demo2_present.jpg"",""time"":1281.8299999998999},{""stimulus"":""blank"",""time"":1523.349999999482},{""stimulus"":""img/demo2_absent.jpg"",""time"":1601.4500000019325},{""stimulus"":""blank"",""time"":1842.2199999986333},{""stimulus"":""img/demo2_absent.jpg"",""time"":1921.505000002071},{""stimulus"":""blank"",""time"":2163.3849999998347},{""stimulus"":""img/demo2_present.jpg"",""time"":2241.6249999987485},{""stimulus"":""blank"",""time"":2482.7599999989616},{""stimulus"":""img/demo2_present.jpg"",""time"":2562.1400000018184},{""stimulus"":""blank"",""time"":2803.1450000016775},{""stimulus"":""img/demo2_absent.jpg"",""time"":2882.304999999178},{""stimulus"":""blank"",""time"":3123.8999999986845},{""stimulus"":""img/demo2_absent.jpg"",""time"":3202.030000000377},{""stimulus"":""blank"",""time"":3443.105000002106},{""stimulus"":""img/demo2_present.jpg"",""time"":3521.1550000021816},{""stimulus"":""blank"",""time"":3763.005000000703},{""stimulus"":""img/demo2_present.jpg"",""time"":3841.100000001461},{""stimulus"":""blank"",""time"":4082.415000000765},{""stimulus"":""img/demo2_absent.jpg"",""time"":4161.439999999857},{""stimulus"":""blank"",""time"":4402.7249999999185},{""stimulus"":""img/demo2_absent.jpg"",""time"":4481.500000001688},{""stimulus"":""blank"",""time"":4723.055000002205},{""stimulus"":""img/demo2_present.jpg"",""time"":4801.070000001346},{""stimulus"":""blank"",""time"":5042.464999998629},{""stimulus"":""img/demo2_present.jpg"",""time"":5122.094999998808},{""stimulus"":""blank"",""time"":5363.359999999375},{""stimulus"":""img/demo2_absent.jpg"",""time"":5441.790000000765},{""stimulus"":""blank"",""time"":5683.105000000069},{""stimulus"":""img/demo2_absent.jpg"",""time"":5761.170000001584},{""stimulus"":""blank"",""time"":6002.909999999247},{""stimulus"":""img/demo2_present.jpg"",""time"":6081.419999998616},{""stimulus"":""blank"",""time"":6323.390000001382},{""stimulus"":""img/demo2_present.jpg"",""time"":6403.164999999717},{""stimulus"":""blank"",""time"":6644.329999999172},{""stimulus"":""img/demo2_absent.jpg"",""time"":6721.28000000157},{""stimulus"":""blank"",""time"":6962.360000001354},{""stimulus"":""img/demo2_absent.jpg"",""time"":7041.700000001583},{""stimulus"":""blank"",""time"":7284.295000001293},{""stimulus"":""img/demo2_present.jpg"",""time"":7361.015000002226},{""stimulus"":""blank"",""time"":7602.745000000141},{""stimulus"":""img/demo2_present.jpg"",""time"":7681.665000000066},{""stimulus"":""blank"",""time"":7922.97999999937},{""stimulus"":""img/demo2_absent.jpg"",""time"":8001.810000001569},{""stimulus"":""blank"",""time"":8243.324999999459},{""stimulus"":""img/demo2_absent.jpg"",""time"":8322.619999999006},{""stimulus"":""blank"",""time"":8564.58500000008},{""stimulus"":""img/demo2_present.jpg"",""time"":8641.670000000886},{""stimulus"":""blank"",""time"":8883.105000000796},{""stimulus"":""img/demo2_present.jpg"",""time"":8961.28999999928},{""stimulus"":""blank"",""time"":9201.990000001388},{""stimulus"":""img/demo2_absent.jpg"",""time"":9281.715000000986},{""stimulus"":""blank"",""time"":9522.584999998799},{""stimulus"":""img/demo2_absent.jpg"",""time"":9601.559999999154},{""stimulus"":""blank"",""time"":9843.24000000197},{""stimulus"":""img/demo2_present.jpg"",""time"":9921.709999998711},{""stimulus"":""blank"",""time"":10163.134999998874},{""stimulus"":""img/demo2_present.jpg"",""time"":10241.385000001173},{""stimulus"":""blank"",""time"":10482.40000000078},{""stimulus"":""img/demo2_absent.jpg"",""time"":10561.014999999315},{""stimulus"":""blank"",""time"":10801.985000001878},{""stimulus"":""img/demo2_absent.jpg"",""time"":10882.564999999886},{""stimulus"":""blank"",""time"":11123.85500000164},{""stimulus"":""img/demo2_present.jpg"",""time"":11201.594999998633},{""stimulus"":""blank"",""time"":11442.849999999453},{""stimulus"":""img/demo2_present.jpg"",""time"":11522.460000000137},{""stimulus"":""blank"",""time"":11764.224999998987},{""stimulus"":""img/demo2_absent.jpg"",""time"":11841.779999998835},{""stimulus"":""blank"",""time"":12082.93500000218},{""stimulus"":""img/demo2_absent.jpg"",""time"":12161.254999999073},{""stimulus"":""blank"",""time"":12402.379999999539},{""stimulus"":""img/demo2_present.jpg"",""time"":12481.135000001814},{""stimulus"":""blank"",""time"":12722.829999998794},{""stimulus"":""img/demo2_present.jpg"",""time"":12801.634999999806},{""stimulus"":""blank"",""time"":13043.77999999997},{""stimulus"":""img/demo2_absent.jpg"",""time"":13121.135000001232},{""stimulus"":""blank"",""time"":13362.895000002027},{""stimulus"":""img/demo2_absent.jpg"",""time"":13441.435000000638},{""stimulus"":""blank"",""time"":13682.254999999714},{""stimulus"":""img/demo2_present.jpg"",""time"":13761.304999999993},{""stimulus"":""blank"",""time"":14002.690000001166},{""stimulus"":""img/demo2_present.jpg"",""time"":14081.58000000185},{""stimulus"":""blank"",""time"":14322.790000001987},{""stimulus"":""img/demo2_absent.jpg"",""time"":14401.255000000674},{""stimulus"":""blank"",""time"":14642.674999999144},{""stimulus"":""img/demo2_absent.jpg"",""time"":14721.704999999929},{""stimulus"":""blank"",""time"":14963.270000000193},{""stimulus"":""img/demo2_present.jpg"",""time"":15041.785000001255},{""stimulus"":""blank"",""time"":15283.299999999144},{""stimulus"":""img/demo2_present.jpg"",""time"":15361.675000000105},{""stimulus"":""blank"",""time"":15603.409999999712},{""stimulus"":""img/demo2_absent.jpg"",""time"":15682.17999999979},{""stimulus"":""blank"",""time"":15923.204999999143},{""stimulus"":""img/demo2_absent.jpg"",""time"":16001.440000000002},{""stimulus"":""blank"",""time"":16241.695000000618},{""stimulus"":""img/demo2_present.jpg"",""time"":16320.840000000317},{""stimulus"":""blank"",""time"":16561.46499999886},{""stimulus"":""img/demo2_present.jpg"",""time"":16641.03999999861},{""stimulus"":""blank"",""time"":16882.700000001932},{""stimulus"":""img/demo2_absent.jpg"",""time"":16961.48499999981},{""stimulus"":""blank"",""time"":17202.720000001136},{""stimulus"":""img/demo2_absent.jpg"",""time"":17281.810000000405},{""stimulus"":""blank"",""time"":17522.945000000618},{""stimulus"":""img/demo2_present.jpg"",""time"":17602.19000000143},{""stimulus"":""blank"",""time"":17844.144999999116},{""stimulus"":""img/demo2_present.jpg"",""time"":17922.08000000028},{""stimulus"":""blank"",""time"":18163.45000000001},{""stimulus"":""img/demo2_absent.jpg"",""time"":18241.460000001098},{""stimulus"":""blank"",""time"":18483.100000001286},{""stimulus"":""img/demo2_absent.jpg"",""time"":18560.50999999934},{""stimulus"":""blank"",""time"":18801.62500000006},{""stimulus"":""img/demo2_present.jpg"",""time"":18881.349999999657},{""stimulus"":""blank"",""time"":19122.91499999992},{""stimulus"":""img/demo2_present.jpg"",""time"":19202.775000001566},{""stimulus"":""blank"",""time"":19444.30999999895},{""stimulus"":""img/demo2_absent.jpg"",""time"":19522.595000002184},{""stimulus"":""blank"",""time"":19763.835000001563},{""stimulus"":""img/demo2_absent.jpg"",""time"":19841.520000001765},{""stimulus"":""blank"",""time"":20083.50000000064},{""stimulus"":""img/demo2_present.jpg"",""time"":20160.71000000011},{""stimulus"":""blank"",""time"":20402.39500000098},{""stimulus"":""img/demo2_present.jpg"",""time"":20481.38000000108},{""stimulus"":""blank"",""time"":20722.430000001623},{""stimulus"":""img/demo2_absent.jpg"",""time"":20802.370000001247},{""stimulus"":""blank"",""time"":21043.480000000272},{""stimulus"":""img/demo2_absent.jpg"",""time"":21122.34499999977},{""stimulus"":""blank"",""time"":21363.984999999957},{""stimulus"":""img/demo2_present.jpg"",""time"":21442.549999999756},{""stimulus"":""blank"",""time"":21683.554999999615},{""stimulus"":""img/demo2_present.jpg"",""time"":21762.1450000006},{""stimulus"":""blank"",""time"":22003.67499999993},{""stimulus"":""img/demo2_absent.jpg"",""time"":22081.460000001243},{""stimulus"":""blank"",""time"":22322.400000000926},{""stimulus"":""img/demo2_absent.jpg"",""time"":22401.91500000219},{""stimulus"":""blank"",""time"":22648.909999999887},{""stimulus"":""img/demo2_present.jpg"",""time"":22721.340000000055},{""stimulus"":""blank"",""time"":22962.415000001783},{""stimulus"":""img/demo2_present.jpg"",""time"":23042.20500000156},{""stimulus"":""blank"",""time"":23283.96000000066},{""stimulus"":""img/demo2_absent.jpg"",""time"":23362.874999998894},{""stimulus"":""blank"",""time"":23604.504999999335},{""stimulus"":""img/demo2_absent.jpg"",""time"":23681.570000000647}]","[{""key_press"":32,""rt"":23784.80000000127,""stimulus"":""img/demo2_absent.jpg""}]",23784.95,2,o,"""","""","""","""","""","""","""","""","""","""","""","""","""","""",10/7/2020 12:55,69.254.67.230,"Mozilla/5.0 (Windows NT 10.0; Win64; x64) AppleWebKit/537.36 (KHTML, like Gecko) Chrome/85.0.4183.121 Safari/537.36",WebKit,Chrome,85.0.4183.121,Windows,10,,,,
76,1,"""",image-keyboard-response,11,79324,0.0-1.0-5.0,A2FGKKWP33DFWS,43.055,387,2,A2FGKKWP33DFWS,387,"""","""","""","""","""","""","""","""",4325.965,detection grids/demo2.jpg,"""",32,"""","""","""","""","""","""","""","""","""","""","""","""","""",10/7/2020 12:55,69.254.67.230,"Mozilla/5.0 (Windows NT 10.0; Win64; x64) AppleWebKit/537.36 (KHTML, like Gecko) Chrome/85.0.4183.121 Safari/537.36",WebKit,Chrome,85.0.4183.121,Windows,10,,,,
76,1,"""",image-button-response,12,82583,0.0-1.0-6.0,A2FGKKWP33DFWS,43.055,387,2,A2FGKKWP33DFWS,387,"""","""","""","""","""","""","""","""",3256.145,detection grids/demo2.jpg,"""","""",0,"""","""","""","""","""","""","""","""","""","""","""","""",10/7/2020 12:55,69.254.67.230,"Mozilla/5.0 (Windows NT 10.0; Win64; x64) AppleWebKit/537.36 (KHTML, like Gecko) Chrome/85.0.4183.121 Safari/537.36",WebKit,Chrome,85.0.4183.121,Windows,10,,,,
76,1,"""",image-button-response,13,84282,0.0-1.0-7.0,A2FGKKWP33DFWS,43.055,387,2,A2FGKKWP33DFWS,387,"""","""","""","""","""","""","""","""",1696.72,detection grids/demo2.jpg,"""","""",1,"""","""","""","""","""","""","""","""","""","""","""","""",10/7/2020 12:55,69.254.67.230,"Mozilla/5.0 (Windows NT 10.0; Win64; x64) AppleWebKit/537.36 (KHTML, like Gecko) Chrome/85.0.4183.121 Safari/537.36",WebKit,Chrome,85.0.4183.121,Windows,10,,,,
76,1,"""",html-keyboard-response,14,90434,0.0-1.0-8.0-0.0,A2FGKKWP33DFWS,43.055,387,2,A2FGKKWP33DFWS,387,"""","""","""","""","""","""","""","""",6150.58,<p style='font-size: 28px;'>Great! You are now ready to continue to the main task.</p>                <p style='font-size: 28px;'>You will now be shown a series of similar trials one after another.</p>                <p style='font-size: 28px;'>It will take about 10-15 minutes until the next break.</p>                <p style='font-size: 28px;'>We ask you to keep your finger over the space bar and stay concentrated the whole time.</p>                <p style='font-size: 24px;'><i>Press the space bar when ready</i></p>,"""",32,"""","""","""","""","""","""","""","""","""","""","""","""","""",10/7/2020 12:55,69.254.67.230,"Mozilla/5.0 (Windows NT 10.0; Win64; x64) AppleWebKit/537.36 (KHTML, like Gecko) Chrome/85.0.4183.121 Safari/537.36",WebKit,Chrome,85.0.4183.121,Windows,10,,,,
76,1,"""",call-function,15,90438,0.0-2.0-0.0,A2FGKKWP33DFWS,43.055,387,2,A2FGKKWP33DFWS,387,[object Object],"""","""","""","""","""","""","""","""","""","""","""","""","""","""","""","""","""","""","""","""","""","""","""","""",10/7/2020 12:55,69.254.67.230,"Mozilla/5.0 (Windows NT 10.0; Win64; x64) AppleWebKit/537.36 (KHTML, like Gecko) Chrome/85.0.4183.121 Safari/537.36",WebKit,Chrome,85.0.4183.121,Windows,10,,,,
76,1,"""",html-keyboard-response,16,90439,0.0-2.0-1.0,A2FGKKWP33DFWS,43.055,387,2,A2FGKKWP33DFWS,387,[object Object],"""","""","""","""","""","""","""","""","""","""","""","""","""","""","""","""","""","""","""","""","""","""","""","""",10/7/2020 12:55,69.254.67.230,"Mozilla/5.0 (Windows NT 10.0; Win64; x64) AppleWebKit/537.36 (KHTML, like Gecko) Chrome/85.0.4183.121 Safari/537.36",WebKit,Chrome,85.0.4183.121,Windows,10,,,,
76,1,"""",html-keyboard-response,17,91440,0.0-2.0-2.0,A2FGKKWP33DFWS,43.055,387,2,A2FGKKWP33DFWS,387,"""","""","""","""","""","""","""","""",null,"<p style=""font-size: 48px;"">ready?</p>","""",null,"""","""","""","""","""","""","""","""","""","""","""","""","""",10/7/2020 12:55,69.254.67.230,"Mozilla/5.0 (Windows NT 10.0; Win64; x64) AppleWebKit/537.36 (KHTML, like Gecko) Chrome/85.0.4183.121 Safari/537.36",WebKit,Chrome,85.0.4183.121,Windows,10,,,,
76,1,"""",html-keyboard-response,18,92442,0.0-2.0-3.0,A2FGKKWP33DFWS,43.055,387,2,A2FGKKWP33DFWS,387,"""","""","""","""","""","""","""","""",null,"<p style=""font-size: 48px;"">ready?</p>","""",null,"""","""","""","""","""","""","""","""","""","""","""","""","""",10/7/2020 12:55,69.254.67.230,"Mozilla/5.0 (Windows NT 10.0; Win64; x64) AppleWebKit/537.36 (KHTML, like Gecko) Chrome/85.0.4183.121 Safari/537.36",WebKit,Chrome,85.0.4183.121,Windows,10,,,,
76,1,"""",html-keyboard-response,19,93443,0.0-2.0-4.0,A2FGKKWP33DFWS,43.055,387,2,A2FGKKWP33DFWS,387,"""","""","""","""","""","""","""","""",null,"<p style=""font-size: 48px;"">ready?</p>","""",null,"""","""","""","""","""","""","""","""","""","""","""","""","""",10/7/2020 12:55,69.254.67.230,"Mozilla/5.0 (Windows NT 10.0; Win64; x64) AppleWebKit/537.36 (KHTML, like Gecko) Chrome/85.0.4183.121 Safari/537.36",WebKit,Chrome,85.0.4183.121,Windows,10,,,,
76,1,TRUE,animation,20,105932,0.0-2.0-5.0,A2FGKKWP33DFWS,43.055,387,2,A2FGKKWP33DFWS,387,"""","""","""","""","""","""","[{""stimulus"":""img/011_R_filler_absent.jpg"",""time"":321.01500000135275},{""stimulus"":""blank"",""time"":561.4449999993667},{""stimulus"":""img/011_R_filler_absent.jpg"",""time"":641.4199999999255},{""stimulus"":""blank"",""time"":881.8700000010722},{""stimulus"":""img/011_R_filler_present.jpg"",""time"":962.0549999999639},{""stimulus"":""blank"",""time"":1203.075000001263},{""stimulus"":""img/011_R_filler_present.jpg"",""time"":1281.0600000011618},{""stimulus"":""blank"",""time"":1521.8649999987974},{""stimulus"":""img/011_R_filler_absent.jpg"",""time"":1601.2599999994563},{""stimulus"":""blank"",""time"":1842.2199999986333},{""stimulus"":""img/011_R_filler_absent.jpg"",""time"":1921.9350000021223},{""stimulus"":""blank"",""time"":2162.5850000018545},{""stimulus"":""img/011_R_filler_present.jpg"",""time"":2241.7200000018056},{""stimulus"":""blank"",""time"":2483.299999999872},{""stimulus"":""img/011_R_filler_present.jpg"",""time"":2561.6699999991397},{""stimulus"":""blank"",""time"":2802.1300000000338},{""stimulus"":""img/011_R_filler_absent.jpg"",""time"":2881.22999999905},{""stimulus"":""blank"",""time"":3122.080000001006},{""stimulus"":""img/011_R_filler_absent.jpg"",""time"":3200.955000000249},{""stimulus"":""blank"",""time"":3442.6000000021304},{""stimulus"":""img/011_R_filler_present.jpg"",""time"":3521.179999999731},{""stimulus"":""blank"",""time"":3762.015000000247},{""stimulus"":""img/011_R_filler_present.jpg"",""time"":3842.5850000021455},{""stimulus"":""blank"",""time"":4083.6550000021816},{""stimulus"":""img/011_R_filler_absent.jpg"",""time"":4162.209999998595},{""stimulus"":""blank"",""time"":4403.535000001284},{""stimulus"":""img/011_R_filler_absent.jpg"",""time"":4481.3800000010815},{""stimulus"":""blank"",""time"":4722.15000000142},{""stimulus"":""img/011_R_filler_present.jpg"",""time"":4801.875000001019},{""stimulus"":""blank"",""time"":5043.014999999286},{""stimulus"":""img/011_R_filler_present.jpg"",""time"":5122.159999998985},{""stimulus"":""blank"",""time"":5363.68500000026},{""stimulus"":""img/011_R_filler_absent.jpg"",""time"":5441.565000000992},{""stimulus"":""blank"",""time"":5681.929999998829},{""stimulus"":""img/011_R_filler_absent.jpg"",""time"":5762.105000001611},{""stimulus"":""blank"",""time"":6002.639999998792},{""stimulus"":""img/011_R_filler_present.jpg"",""time"":6081.56500000041},{""stimulus"":""blank"",""time"":6323.225000000093},{""stimulus"":""img/011_R_filler_present.jpg"",""time"":6401.460000000952},{""stimulus"":""blank"",""time"":6641.80000000124},{""stimulus"":""img/011_R_filler_absent.jpg"",""time"":6721.799999999348},{""stimulus"":""blank"",""time"":6963.130000000092},{""stimulus"":""img/011_R_filler_absent.jpg"",""time"":7041.8250000002445},{""stimulus"":""blank"",""time"":7282.9899999997},{""stimulus"":""img/011_R_filler_present.jpg"",""time"":7360.885000001872},{""stimulus"":""blank"",""time"":7601.655000002211},{""stimulus"":""img/011_R_filler_present.jpg"",""time"":7682.059999999183},{""stimulus"":""blank"",""time"":7922.930000000633},{""stimulus"":""img/011_R_filler_absent.jpg"",""time"":8000.855000002048},{""stimulus"":""blank"",""time"":8241.140000001906},{""stimulus"":""img/011_R_filler_absent.jpg"",""time"":8321.745000001101},{""stimulus"":""blank"",""time"":8563.420000002225},{""stimulus"":""img/011_R_filler_present.jpg"",""time"":8641.540000000532},{""stimulus"":""blank"",""time"":8883.389999999054},{""stimulus"":""img/011_R_filler_present.jpg"",""time"":8961.480000001757},{""stimulus"":""blank"",""time"":9202.704999999696},{""stimulus"":""img/011_R_filler_absent.jpg"",""time"":9282.00999999899},{""stimulus"":""blank"",""time"":9523.01499999885},{""stimulus"":""img/011_R_filler_absent.jpg"",""time"":9601.269999999204},{""stimulus"":""blank"",""time"":9841.785000000527},{""stimulus"":""img/011_R_filler_present.jpg"",""time"":9921.940000000177},{""stimulus"":""blank"",""time"":10162.940000001981},{""stimulus"":""img/011_R_filler_present.jpg"",""time"":10241.939999999886},{""stimulus"":""blank"",""time"":10482.319999999163},{""stimulus"":""img/011_R_filler_absent.jpg"",""time"":10560.850000001665},{""stimulus"":""blank"",""time"":10801.165000000765},{""stimulus"":""img/011_R_filler_absent.jpg"",""time"":10881.22999999905},{""stimulus"":""blank"",""time"":11122.739999998885},{""stimulus"":""img/011_R_filler_present.jpg"",""time"":11202.049999999872},{""stimulus"":""blank"",""time"":11443.810000000667},{""stimulus"":""img/011_R_filler_present.jpg"",""time"":11520.544999999402},{""stimulus"":""blank"",""time"":11761.60499999969},{""stimulus"":""img/011_R_filler_absent.jpg"",""time"":11841.230000001815},{""stimulus"":""blank"",""time"":12081.780000000435},{""stimulus"":""img/011_R_filler_absent.jpg"",""time"":12161.37499999968},{""stimulus"":""blank"",""time"":12402.03499999916},{""stimulus"":""img/011_R_filler_present.jpg"",""time"":12481.120000000374}]","[{""key_press"":32,""rt"":12487.479999999778,""stimulus"":""img/011_R_filler_present.jpg""}]",12487.55,11,R,"""","""","3,1","""","""","""","""","""","""","""","""","""","""","""",10/7/2020 12:55,69.254.67.230,"Mozilla/5.0 (Windows NT 10.0; Win64; x64) AppleWebKit/537.36 (KHTML, like Gecko) Chrome/85.0.4183.121 Safari/537.36",WebKit,Chrome,85.0.4183.121,Windows,10,,,,
76,1,"""",image-button-response,21,109332,0.0-2.0-6.0,A2FGKKWP33DFWS,43.055,387,2,A2FGKKWP33DFWS,387,"""","""","""","""","""","""","""","""",3393.31,detection grids/011R.jpg,"""","""",3,"""",TRUE,"""","""","""","""","""","""","""","""","""","""",10/7/2020 12:55,69.254.67.230,"Mozilla/5.0 (Windows NT 10.0; Win64; x64) AppleWebKit/537.36 (KHTML, like Gecko) Chrome/85.0.4183.121 Safari/537.36",WebKit,Chrome,85.0.4183.121,Windows,10,,,,
76,1,"""",image-button-response,22,112198,0.0-2.0-7.0,A2FGKKWP33DFWS,43.055,387,2,A2FGKKWP33DFWS,387,"""","""","""","""","""","""","""","""",2862.065,detection grids/011R.jpg,"""","""",1,"""",TRUE,"""","""","""","""","""","""","""","""","""","""",10/7/2020 12:55,69.254.67.230,"Mozilla/5.0 (Windows NT 10.0; Win64; x64) AppleWebKit/537.36 (KHTML, like Gecko) Chrome/85.0.4183.121 Safari/537.36",WebKit,Chrome,85.0.4183.121,Windows,10,,,,
76,1,"""",call-function,23,112201,0.0-2.0-0.1,A2FGKKWP33DFWS,43.055,387,2,A2FGKKWP33DFWS,387,[object Object],"""","""","""","""","""","""","""","""","""","""","""","""","""","""","""","""","""","""","""","""","""","""","""","""",10/7/2020 12:55,69.254.67.230,"Mozilla/5.0 (Windows NT 10.0; Win64; x64) AppleWebKit/537.36 (KHTML, like Gecko) Chrome/85.0.4183.121 Safari/537.36",WebKit,Chrome,85.0.4183.121,Windows,10,,,,
76,1,"""",html-keyboard-response,24,112205,0.0-2.0-1.1,A2FGKKWP33DFWS,43.055,387,2,A2FGKKWP33DFWS,387,[object Object],"""","""","""","""","""","""","""","""","""","""","""","""","""","""","""","""","""","""","""","""","""","""","""","""",10/7/2020 12:55,69.254.67.230,"Mozilla/5.0 (Windows NT 10.0; Win64; x64) AppleWebKit/537.36 (KHTML, like Gecko) Chrome/85.0.4183.121 Safari/537.36",WebKit,Chrome,85.0.4183.121,Windows,10,,,,
76,1,"""",html-keyboard-response,25,113207,0.0-2.0-2.1,A2FGKKWP33DFWS,43.055,387,2,A2FGKKWP33DFWS,387,"""","""","""","""","""","""","""","""",null,"<p style=""font-size: 48px;"">ready?</p>","""",null,"""","""","""","""","""","""","""","""","""","""","""","""","""",10/7/2020 12:55,69.254.67.230,"Mozilla/5.0 (Windows NT 10.0; Win64; x64) AppleWebKit/537.36 (KHTML, like Gecko) Chrome/85.0.4183.121 Safari/537.36",WebKit,Chrome,85.0.4183.121,Windows,10,,,,
76,1,"""",html-keyboard-response,26,114208,0.0-2.0-3.1,A2FGKKWP33DFWS,43.055,387,2,A2FGKKWP33DFWS,387,"""","""","""","""","""","""","""","""",null,"<p style=""font-size: 48px;"">ready?</p>","""",null,"""","""","""","""","""","""","""","""","""","""","""","""","""",10/7/2020 12:55,69.254.67.230,"Mozilla/5.0 (Windows NT 10.0; Win64; x64) AppleWebKit/537.36 (KHTML, like Gecko) Chrome/85.0.4183.121 Safari/537.36",WebKit,Chrome,85.0.4183.121,Windows,10,,,,
76,1,"""",html-keyboard-response,27,115211,0.0-2.0-4.1,A2FGKKWP33DFWS,43.055,387,2,A2FGKKWP33DFWS,387,"""","""","""","""","""","""","""","""",null,"<p style=""font-size: 48px;"">ready?</p>","""",null,"""","""","""","""","""","""","""","""","""","""","""","""","""",10/7/2020 12:55,69.254.67.230,"Mozilla/5.0 (Windows NT 10.0; Win64; x64) AppleWebKit/537.36 (KHTML, like Gecko) Chrome/85.0.4183.121 Safari/537.36",WebKit,Chrome,85.0.4183.121,Windows,10,,,,
76,1,TRUE,animation,28,122411,0.0-2.0-5.1,A2FGKKWP33DFWS,43.055,387,2,A2FGKKWP33DFWS,387,"""","""","""","""","""","""","[{""stimulus"":""img/013_L_filler_absent.jpg"",""time"":320.84000000031665},{""stimulus"":""blank"",""time"":562.0149999995192},{""stimulus"":""img/013_L_filler_absent.jpg"",""time"":641.4550000008603},{""stimulus"":""blank"",""time"":895.6099999995786},{""stimulus"":""img/013_L_filler_present.jpg"",""time"":961.9149999998626},{""stimulus"":""blank"",""time"":1203.3100000007835},{""stimulus"":""img/013_L_filler_present.jpg"",""time"":1281.4299999990908},{""stimulus"":""blank"",""time"":1522.4300000008952},{""stimulus"":""img/013_L_filler_absent.jpg"",""time"":1601.504999998724},{""stimulus"":""blank"",""time"":1842.609999999695},{""stimulus"":""img/013_L_filler_absent.jpg"",""time"":1921.6599999999744},{""stimulus"":""blank"",""time"":2162.7650000009453},{""stimulus"":""img/013_L_filler_present.jpg"",""time"":2241.7199999981676},{""stimulus"":""blank"",""time"":2482.5400000008813},{""stimulus"":""img/013_L_filler_present.jpg"",""time"":2561.0149999993155},{""stimulus"":""blank"",""time"":2802.01500000112},{""stimulus"":""img/013_L_filler_absent.jpg"",""time"":2881.069999999454},{""stimulus"":""blank"",""time"":3122.380000000703},{""stimulus"":""img/013_L_filler_absent.jpg"",""time"":3201.744999998482},{""stimulus"":""blank"",""time"":3442.35000000117},{""stimulus"":""img/013_L_filler_present.jpg"",""time"":3521.0149999984424},{""stimulus"":""blank"",""time"":3761.594999999943},{""stimulus"":""img/013_L_filler_present.jpg"",""time"":3842.0999999980268},{""stimulus"":""blank"",""time"":4083.459999998013},{""stimulus"":""img/013_L_filler_absent.jpg"",""time"":4160.289999999804},{""stimulus"":""blank"",""time"":4402.139999998326},{""stimulus"":""img/013_L_filler_absent.jpg"",""time"":4480.66000000108},{""stimulus"":""blank"",""time"":4721.754999998666},{""stimulus"":""img/013_L_filler_present.jpg"",""time"":4801.6549999993},{""stimulus"":""blank"",""time"":5042.225000001054},{""stimulus"":""img/013_L_filler_present.jpg"",""time"":5120.695000001433},{""stimulus"":""blank"",""time"":5361.264999999548},{""stimulus"":""img/013_L_filler_absent.jpg"",""time"":5440.644999998767},{""stimulus"":""blank"",""time"":5680.954999999813},{""stimulus"":""img/013_L_filler_absent.jpg"",""time"":5762.16999999815},{""stimulus"":""blank"",""time"":6003.120000001218},{""stimulus"":""img/013_L_filler_present.jpg"",""time"":6082.139999998617},{""stimulus"":""blank"",""time"":6323.970000001282},{""stimulus"":""img/013_L_filler_present.jpg"",""time"":6401.379999999335},{""stimulus"":""blank"",""time"":6642.384999999194},{""stimulus"":""img/013_L_filler_absent.jpg"",""time"":6721.669999998994},{""stimulus"":""blank"",""time"":6962.264999998297},{""stimulus"":""img/013_L_filler_absent.jpg"",""time"":7041.044999998121}]","[{""key_press"":32,""rt"":7196.9349999999395,""stimulus"":""img/013_L_filler_absent.jpg""}]",7197.02,13,L,"""","""","0,1","""","""","""","""","""","""","""","""","""","""","""",10/7/2020 12:55,69.254.67.230,"Mozilla/5.0 (Windows NT 10.0; Win64; x64) AppleWebKit/537.36 (KHTML, like Gecko) Chrome/85.0.4183.121 Safari/537.36",WebKit,Chrome,85.0.4183.121,Windows,10,,,,
76,1,"""",image-button-response,29,125143,0.0-2.0-6.1,A2FGKKWP33DFWS,43.055,387,2,A2FGKKWP33DFWS,387,"""","""","""","""","""","""","""","""",2726.34,detection grids/013L.jpg,"""","""",0,"""",TRUE,"""","""","""","""","""","""","""","""","""","""",10/7/2020 12:55,69.254.67.230,"Mozilla/5.0 (Windows NT 10.0; Win64; x64) AppleWebKit/537.36 (KHTML, like Gecko) Chrome/85.0.4183.121 Safari/537.36",WebKit,Chrome,85.0.4183.121,Windows,10,,,,
76,1,"""",image-button-response,30,127478,0.0-2.0-7.1,A2FGKKWP33DFWS,43.055,387,2,A2FGKKWP33DFWS,387,"""","""","""","""","""","""","""","""",2331.45,detection grids/013L.jpg,"""","""",1,"""",TRUE,"""","""","""","""","""","""","""","""","""","""",10/7/2020 12:55,69.254.67.230,"Mozilla/5.0 (Windows NT 10.0; Win64; x64) AppleWebKit/537.36 (KHTML, like Gecko) Chrome/85.0.4183.121 Safari/537.36",WebKit,Chrome,85.0.4183.121,Windows,10,,,,
76,1,"""",call-function,31,127480,0.0-2.0-0.2,A2FGKKWP33DFWS,43.055,387,2,A2FGKKWP33DFWS,387,[object Object],"""","""","""","""","""","""","""","""","""","""","""","""","""","""","""","""","""","""","""","""","""","""","""","""",10/7/2020 12:55,69.254.67.230,"Mozilla/5.0 (Windows NT 10.0; Win64; x64) AppleWebKit/537.36 (KHTML, like Gecko) Chrome/85.0.4183.121 Safari/537.36",WebKit,Chrome,85.0.4183.121,Windows,10,,,,
76,1,"""",html-keyboard-response,32,127481,0.0-2.0-1.2,A2FGKKWP33DFWS,43.055,387,2,A2FGKKWP33DFWS,387,[object Object],"""","""","""","""","""","""","""","""","""","""","""","""","""","""","""","""","""","""","""","""","""","""","""","""",10/7/2020 12:55,69.254.67.230,"Mozilla/5.0 (Windows NT 10.0; Win64; x64) AppleWebKit/537.36 (KHTML, like Gecko) Chrome/85.0.4183.121 Safari/537.36",WebKit,Chrome,85.0.4183.121,Windows,10,,,,
76,1,"""",html-keyboard-response,33,128482,0.0-2.0-2.2,A2FGKKWP33DFWS,43.055,387,2,A2FGKKWP33DFWS,387,"""","""","""","""","""","""","""","""",null,"<p style=""font-size: 48px;"">ready?</p>","""",null,"""","""","""","""","""","""","""","""","""","""","""","""","""",10/7/2020 12:55,69.254.67.230,"Mozilla/5.0 (Windows NT 10.0; Win64; x64) AppleWebKit/537.36 (KHTML, like Gecko) Chrome/85.0.4183.121 Safari/537.36",WebKit,Chrome,85.0.4183.121,Windows,10,,,,
76,1,"""",html-keyboard-response,34,129490,0.0-2.0-3.2,A2FGKKWP33DFWS,43.055,387,2,A2FGKKWP33DFWS,387,"""","""","""","""","""","""","""","""",null,"<p style=""font-size: 48px;"">ready?</p>","""",null,"""","""","""","""","""","""","""","""","""","""","""","""","""",10/7/2020 12:55,69.254.67.230,"Mozilla/5.0 (Windows NT 10.0; Win64; x64) AppleWebKit/537.36 (KHTML, like Gecko) Chrome/85.0.4183.121 Safari/537.36",WebKit,Chrome,85.0.4183.121,Windows,10,,,,
76,1,"""",html-keyboard-response,35,130493,0.0-2.0-4.2,A2FGKKWP33DFWS,43.055,387,2,A2FGKKWP33DFWS,387,"""","""","""","""","""","""","""","""",null,"<p style=""font-size: 48px;"">ready?</p>","""",null,"""","""","""","""","""","""","""","""","""","""","""","""","""",10/7/2020 12:55,69.254.67.230,"Mozilla/5.0 (Windows NT 10.0; Win64; x64) AppleWebKit/537.36 (KHTML, like Gecko) Chrome/85.0.4183.121 Safari/537.36",WebKit,Chrome,85.0.4183.121,Windows,10,,,,
76,1,TRUE,animation,36,163819,0.0-2.0-5.2,A2FGKKWP33DFWS,43.055,387,2,A2FGKKWP33DFWS,387,"""","""","""","""","""","""","[{""stimulus"":""img/030_L_filler_absent.jpg"",""time"":321.6600000014296},{""stimulus"":""blank"",""time"":562.5450000006822},{""stimulus"":""img/030_L_filler_absent.jpg"",""time"":641.5349999988393},{""stimulus"":""blank"",""time"":882.9899999982445},{""stimulus"":""img/030_L_filler_present.jpg"",""time"":961.2200000010489},{""stimulus"":""blank"",""time"":1202.4600000004284},{""stimulus"":""img/030_L_filler_present.jpg"",""time"":1282.0600000013656},{""stimulus"":""blank"",""time"":1522.6399999992282},{""stimulus"":""img/030_L_filler_absent.jpg"",""time"":1602.419999999256},{""stimulus"":""blank"",""time"":1842.8600000006554},{""stimulus"":""img/030_L_filler_absent.jpg"",""time"":1922.869999998511},{""stimulus"":""blank"",""time"":2163.684999999532},{""stimulus"":""img/030_L_filler_present.jpg"",""time"":2241.5650000002643},{""stimulus"":""blank"",""time"":2482.960000001185},{""stimulus"":""img/030_L_filler_present.jpg"",""time"":2561.505000001489},{""stimulus"":""blank"",""time"":2803.1799999989744},{""stimulus"":""img/030_L_filler_absent.jpg"",""time"":2882.2350000009465},{""stimulus"":""blank"",""time"":3122.5650000014866},{""stimulus"":""img/030_L_filler_absent.jpg"",""time"":3201.44000000073},{""stimulus"":""blank"",""time"":3442.125000001397},{""stimulus"":""img/030_L_filler_present.jpg"",""time"":3521.7550000015763},{""stimulus"":""blank"",""time"":3763.279999999213},{""stimulus"":""img/030_L_filler_present.jpg"",""time"":3847.665000001143},{""stimulus"":""blank"",""time"":4088.130000000092},{""stimulus"":""img/030_L_filler_absent.jpg"",""time"":4161.574999998265},{""stimulus"":""blank"",""time"":4402.914999998757},{""stimulus"":""img/030_L_filler_absent.jpg"",""time"":4481.824999998935},{""stimulus"":""blank"",""time"":4722.71499999988},{""stimulus"":""img/030_L_filler_present.jpg"",""time"":4801.794999999402},{""stimulus"":""blank"",""time"":5042.60499999873},{""stimulus"":""img/030_L_filler_present.jpg"",""time"":5121.549999999843},{""stimulus"":""blank"",""time"":5362.704999999551},{""stimulus"":""img/030_L_filler_absent.jpg"",""time"":5442.3900000001595},{""stimulus"":""blank"",""time"":5683.625000001484},{""stimulus"":""img/030_L_filler_absent.jpg"",""time"":5761.839999999211},{""stimulus"":""blank"",""time"":6003.375000000233},{""stimulus"":""img/030_L_filler_present.jpg"",""time"":6081.5699999984645},{""stimulus"":""blank"",""time"":6322.814999999537},{""stimulus"":""img/030_L_filler_present.jpg"",""time"":6401.815000001079},{""stimulus"":""blank"",""time"":6642.899999998917},{""stimulus"":""img/030_L_filler_absent.jpg"",""time"":6721.639999999752},{""stimulus"":""blank"",""time"":6962.210000001505},{""stimulus"":""img/030_L_filler_absent.jpg"",""time"":7042.05500000171},{""stimulus"":""blank"",""time"":7284.035000000586},{""stimulus"":""img/030_L_filler_present.jpg"",""time"":7361.430000000837},{""stimulus"":""blank"",""time"":7603.050000001531},{""stimulus"":""img/030_L_filler_present.jpg"",""time"":7681.739999999991},{""stimulus"":""blank"",""time"":7922.320000001491},{""stimulus"":""img/030_L_filler_absent.jpg"",""time"":8011.8599999987055},{""stimulus"":""blank"",""time"":8252.355000000534},{""stimulus"":""img/030_L_filler_absent.jpg"",""time"":8321.725000001607},{""stimulus"":""blank"",""time"":8563.650000000052},{""stimulus"":""img/030_L_filler_present.jpg"",""time"":8641.684999998688},{""stimulus"":""blank"",""time"":8883.085000001302},{""stimulus"":""img/030_L_filler_present.jpg"",""time"":8960.739999998623},{""stimulus"":""blank"",""time"":9202.430000001186},{""stimulus"":""img/030_L_filler_absent.jpg"",""time"":9281.364999998914},{""stimulus"":""blank"",""time"":9522.635000001173},{""stimulus"":""img/030_L_filler_absent.jpg"",""time"":9601.220000000467},{""stimulus"":""blank"",""time"":9842.069999998785},{""stimulus"":""img/030_L_filler_present.jpg"",""time"":9921.665000001667},{""stimulus"":""blank"",""time"":10163.379999998142},{""stimulus"":""img/030_L_filler_present.jpg"",""time"":10240.5800000015},{""stimulus"":""blank"",""time"":10481.635000000097},{""stimulus"":""img/030_L_filler_absent.jpg"",""time"":10569.374999999127},{""stimulus"":""blank"",""time"":10810.63500000164},{""stimulus"":""img/030_L_filler_absent.jpg"",""time"":10880.935000001045},{""stimulus"":""blank"",""time"":11121.57500000103},{""stimulus"":""img/030_L_filler_present.jpg"",""time"":11200.939999998809},{""stimulus"":""blank"",""time"":11441.760000001523},{""stimulus"":""img/030_L_filler_present.jpg"",""time"":11521.895000001678},{""stimulus"":""blank"",""time"":11762.800000000425},{""stimulus"":""img/030_L_filler_absent.jpg"",""time"":11841.394999999466},{""stimulus"":""blank"",""time"":12081.884999999602},{""stimulus"":""img/030_L_filler_absent.jpg"",""time"":12162.100000001374},{""stimulus"":""blank"",""time"":12402.32499999911},{""stimulus"":""img/030_L_filler_present.jpg"",""time"":12482.349999998405},{""stimulus"":""blank"",""time"":12722.584999999526},{""stimulus"":""img/030_L_filler_present.jpg"",""time"":12801.159999999072},{""stimulus"":""blank"",""time"":13041.890000000421},{""stimulus"":""img/030_L_filler_absent.jpg"",""time"":13122.049999998126},{""stimulus"":""blank"",""time"":13362.424999999348},{""stimulus"":""img/030_L_filler_absent.jpg"",""time"":13441.405000001396},{""stimulus"":""blank"",""time"":13682.095000000118},{""stimulus"":""img/030_L_filler_present.jpg"",""time"":13761.070000000473},{""stimulus"":""blank"",""time"":14002.615000001242},{""stimulus"":""img/030_L_filler_present.jpg"",""time"":14081.669999999576},{""stimulus"":""blank"",""time"":14322.134999998525},{""stimulus"":""img/030_L_filler_absent.jpg"",""time"":14401.450000001205},{""stimulus"":""blank"",""time"":14642.63999999821},{""stimulus"":""img/030_L_filler_absent.jpg"",""time"":14722.020000001066},{""stimulus"":""blank"",""time"":14962.295000001177},{""stimulus"":""img/030_L_filler_present.jpg"",""time"":15040.64500000095},{""stimulus"":""blank"",""time"":15282.060000001366},{""stimulus"":""img/030_L_filler_present.jpg"",""time"":15361.38999999821},{""stimulus"":""blank"",""time"":15602.074999998877},{""stimulus"":""img/030_L_filler_absent.jpg"",""time"":15681.625000001077},{""stimulus"":""blank"",""time"":15923.370000000432},{""stimulus"":""img/030_L_filler_absent.jpg"",""time"":16002.59499999811},{""stimulus"":""blank"",""time"":16243.894999999611},{""stimulus"":""img/030_L_filler_present.jpg"",""time"":16322.084999999788},{""stimulus"":""blank"",""time"":16564.190000000963},{""stimulus"":""img/030_L_filler_present.jpg"",""time"":16641.469999998662},{""stimulus"":""blank"",""time"":16882.58499999938},{""stimulus"":""img/030_L_filler_absent.jpg"",""time"":16960.745000000315},{""stimulus"":""blank"",""time"":17201.144999999087},{""stimulus"":""img/030_L_filler_absent.jpg"",""time"":17281.73500000048},{""stimulus"":""blank"",""time"":17522.759999999835},{""stimulus"":""img/030_L_filler_present.jpg"",""time"":17601.449999998295},{""stimulus"":""blank"",""time"":17842.680000001565},{""stimulus"":""img/030_L_filler_present.jpg"",""time"":17921.995000000607},{""stimulus"":""blank"",""time"":18162.26000000097},{""stimulus"":""img/030_L_filler_absent.jpg"",""time"":18241.99999999837},{""stimulus"":""blank"",""time"":18482.834999998886},{""stimulus"":""img/030_L_filler_absent.jpg"",""time"":18561.774999998306},{""stimulus"":""blank"",""time"":18802.325000000565},{""stimulus"":""img/030_L_filler_present.jpg"",""time"":18881.594999998924},{""stimulus"":""blank"",""time"":19122.37499999901},{""stimulus"":""img/030_L_filler_present.jpg"",""time"":19201.01000000068},{""stimulus"":""blank"",""time"":19442.109999999957},{""stimulus"":""img/030_L_filler_absent.jpg"",""time"":19521.059999999125},{""stimulus"":""blank"",""time"":19761.69999999911},{""stimulus"":""img/030_L_filler_absent.jpg"",""time"":19842.114999999467},{""stimulus"":""blank"",""time"":20082.760000001144},{""stimulus"":""img/030_L_filler_present.jpg"",""time"":20162.74500000145},{""stimulus"":""blank"",""time"":20403.630000000703},{""stimulus"":""img/030_L_filler_present.jpg"",""time"":20481.99499999828},{""stimulus"":""blank"",""time"":20723.15499999968},{""stimulus"":""img/030_L_filler_absent.jpg"",""time"":20801.980000000185},{""stimulus"":""blank"",""time"":21042.6899999984},{""stimulus"":""img/030_L_filler_absent.jpg"",""time"":21121.20000000141},{""stimulus"":""blank"",""time"":21362.04500000167},{""stimulus"":""img/030_L_filler_present.jpg"",""time"":21443.804999998974},{""stimulus"":""blank"",""time"":21684.959999998682},{""stimulus"":""img/030_L_filler_present.jpg"",""time"":21762.024999999994},{""stimulus"":""blank"",""time"":22002.509999998438},{""stimulus"":""img/030_L_filler_absent.jpg"",""time"":22081.914999998844},{""stimulus"":""blank"",""time"":22322.390000001178},{""stimulus"":""img/030_L_filler_absent.jpg"",""time"":22401.010000001406},{""stimulus"":""blank"",""time"":22641.67499999894},{""stimulus"":""img/030_L_filler_present.jpg"",""time"":22721.18000000046},{""stimulus"":""blank"",""time"":22968.489999999292},{""stimulus"":""img/030_L_filler_present.jpg"",""time"":23041.574999999284},{""stimulus"":""blank"",""time"":23281.99500000119},{""stimulus"":""img/030_L_filler_absent.jpg"",""time"":23361.830000001646},{""stimulus"":""blank"",""time"":23603.179999998247},{""stimulus"":""img/030_L_filler_absent.jpg"",""time"":23682.369999998627},{""stimulus"":""blank"",""time"":23922.794999998587},{""stimulus"":""img/030_L_filler_present.jpg"",""time"":24003.065000000788},{""stimulus"":""blank"",""time"":24243.705000000773},{""stimulus"":""img/030_L_filler_present.jpg"",""time"":24322.355000000243},{""stimulus"":""blank"",""time"":24563.614999999118},{""stimulus"":""img/030_L_filler_absent.jpg"",""time"":24642.005000001518},{""stimulus"":""blank"",""time"":24883.27500000014},{""stimulus"":""img/030_L_filler_absent.jpg"",""time"":24962.00999999928},{""stimulus"":""blank"",""time"":25202.36500000101},{""stimulus"":""img/030_L_filler_present.jpg"",""time"":25281.14999999889},{""stimulus"":""blank"",""time"":25521.99499999915},{""stimulus"":""img/030_L_filler_present.jpg"",""time"":25601.23999999996},{""stimulus"":""blank"",""time"":25842.264999999315},{""stimulus"":""img/030_L_filler_absent.jpg"",""time"":25921.354999998584},{""stimulus"":""blank"",""time"":26162.41000000082},{""stimulus"":""img/030_L_filler_absent.jpg"",""time"":26241.41999999847},{""stimulus"":""blank"",""time"":26481.865000001562},{""stimulus"":""img/030_L_filler_present.jpg"",""time"":26561.884999999165},{""stimulus"":""blank"",""time"":26802.919999998267},{""stimulus"":""img/030_L_filler_present.jpg"",""time"":26880.82999999824},{""stimulus"":""blank"",""time"":27121.76499999987},{""stimulus"":""img/030_L_filler_absent.jpg"",""time"":27201.669999998558},{""stimulus"":""blank"",""time"":27442.62499999968},{""stimulus"":""img/030_L_filler_absent.jpg"",""time"":27521.63500000097},{""stimulus"":""blank"",""time"":27762.63000000108},{""stimulus"":""img/030_L_filler_present.jpg"",""time"":27841.710000000603},{""stimulus"":""blank"",""time"":28082.660000000033},{""stimulus"":""img/030_L_filler_present.jpg"",""time"":28162.219999998342},{""stimulus"":""blank"",""time"":28403.174999999464},{""stimulus"":""img/030_L_filler_absent.jpg"",""time"":28481.55499999848},{""stimulus"":""blank"",""time"":28722.450000001118},{""stimulus"":""img/030_L_filler_absent.jpg"",""time"":28802.035000000615},{""stimulus"":""blank"",""time"":29043.119999998453},{""stimulus"":""img/030_L_filler_present.jpg"",""time"":29122.07000000126},{""stimulus"":""blank"",""time"":29363.055000001623},{""stimulus"":""img/030_L_filler_present.jpg"",""time"":29441.96000000011},{""stimulus"":""blank"",""time"":29682.619999999588},{""stimulus"":""img/030_L_filler_absent.jpg"",""time"":29762.790000000678},{""stimulus"":""blank"",""time"":30004.300000000512},{""stimulus"":""img/030_L_filler_absent.jpg"",""time"":30081.504999998288},{""stimulus"":""blank"",""time"":30321.96499999918},{""stimulus"":""img/030_L_filler_present.jpg"",""time"":30401.079999999638},{""stimulus"":""blank"",""time"":30643.019999999524},{""stimulus"":""img/030_L_filler_present.jpg"",""time"":30721.409999998286},{""stimulus"":""blank"",""time"":30961.83000000019},{""stimulus"":""img/030_L_filler_absent.jpg"",""time"":31047.53999999957},{""stimulus"":""blank"",""time"":31288.045000001148},{""stimulus"":""img/030_L_filler_absent.jpg"",""time"":31361.335000001418},{""stimulus"":""blank"",""time"":31602.539999999863},{""stimulus"":""img/030_L_filler_present.jpg"",""time"":31685.334999998304},{""stimulus"":""blank"",""time"":31926.790000001347},{""stimulus"":""img/030_L_filler_present.jpg"",""time"":32001.04999999894},{""stimulus"":""blank"",""time"":32242.559999998775},{""stimulus"":""img/030_L_filler_absent.jpg"",""time"":32320.85499999812},{""stimulus"":""blank"",""time"":32561.839999998483},{""stimulus"":""img/030_L_filler_absent.jpg"",""time"":32642.11499999874},{""stimulus"":""blank"",""time"":32882.76499999847},{""stimulus"":""img/030_L_filler_present.jpg"",""time"":32961.61999999822},{""stimulus"":""blank"",""time"":33203.58000000124},{""stimulus"":""img/030_L_filler_present.jpg"",""time"":33281.754999999976}]","[{""key_press"":32,""rt"":33321.71000000017,""stimulus"":""img/030_L_filler_present.jpg""}]",33321.875,30,L,"""","""","1,0","""","""","""","""","""","""","""","""","""","""","""",10/7/2020 12:55,69.254.67.230,"Mozilla/5.0 (Windows NT 10.0; Win64; x64) AppleWebKit/537.36 (KHTML, like Gecko) Chrome/85.0.4183.121 Safari/537.36",WebKit,Chrome,85.0.4183.121,Windows,10,,,,
76,1,"""",image-button-response,37,168279,0.0-2.0-6.2,A2FGKKWP33DFWS,43.055,387,2,A2FGKKWP33DFWS,387,"""","""","""","""","""","""","""","""",4446.865,detection grids/030L.jpg,"""","""",1,"""",TRUE,"""","""","""","""","""","""","""","""","""","""",10/7/2020 12:55,69.254.67.230,"Mozilla/5.0 (Windows NT 10.0; Win64; x64) AppleWebKit/537.36 (KHTML, like Gecko) Chrome/85.0.4183.121 Safari/537.36",WebKit,Chrome,85.0.4183.121,Windows,10,,,,
76,1,"""",image-button-response,38,170090,0.0-2.0-7.2,A2FGKKWP33DFWS,43.055,387,2,A2FGKKWP33DFWS,387,"""","""","""","""","""","""","""","""",1809.4,detection grids/030L.jpg,"""","""",0,"""",TRUE,"""","""","""","""","""","""","""","""","""","""",10/7/2020 12:55,69.254.67.230,"Mozilla/5.0 (Windows NT 10.0; Win64; x64) AppleWebKit/537.36 (KHTML, like Gecko) Chrome/85.0.4183.121 Safari/537.36",WebKit,Chrome,85.0.4183.121,Windows,10,,,,
76,1,"""",call-function,39,170095,0.0-2.0-0.3,A2FGKKWP33DFWS,43.055,387,2,A2FGKKWP33DFWS,387,[object Object],"""","""","""","""","""","""","""","""","""","""","""","""","""","""","""","""","""","""","""","""","""","""","""","""",10/7/2020 12:55,69.254.67.230,"Mozilla/5.0 (Windows NT 10.0; Win64; x64) AppleWebKit/537.36 (KHTML, like Gecko) Chrome/85.0.4183.121 Safari/537.36",WebKit,Chrome,85.0.4183.121,Windows,10,,,,
76,1,"""",html-keyboard-response,40,170097,0.0-2.0-1.3,A2FGKKWP33DFWS,43.055,387,2,A2FGKKWP33DFWS,387,[object Object],"""","""","""","""","""","""","""","""","""","""","""","""","""","""","""","""","""","""","""","""","""","""","""","""",10/7/2020 12:55,69.254.67.230,"Mozilla/5.0 (Windows NT 10.0; Win64; x64) AppleWebKit/537.36 (KHTML, like Gecko) Chrome/85.0.4183.121 Safari/537.36",WebKit,Chrome,85.0.4183.121,Windows,10,,,,
76,1,"""",html-keyboard-response,41,171100,0.0-2.0-2.3,A2FGKKWP33DFWS,43.055,387,2,A2FGKKWP33DFWS,387,"""","""","""","""","""","""","""","""",null,"<p style=""font-size: 48px;"">ready?</p>","""",null,"""","""","""","""","""","""","""","""","""","""","""","""","""",10/7/2020 12:55,69.254.67.230,"Mozilla/5.0 (Windows NT 10.0; Win64; x64) AppleWebKit/537.36 (KHTML, like Gecko) Chrome/85.0.4183.121 Safari/537.36",WebKit,Chrome,85.0.4183.121,Windows,10,,,,
76,1,"""",html-keyboard-response,42,172103,0.0-2.0-3.3,A2FGKKWP33DFWS,43.055,387,2,A2FGKKWP33DFWS,387,"""","""","""","""","""","""","""","""",null,"<p style=""font-size: 48px;"">ready?</p>","""",null,"""","""","""","""","""","""","""","""","""","""","""","""","""",10/7/2020 12:55,69.254.67.230,"Mozilla/5.0 (Windows NT 10.0; Win64; x64) AppleWebKit/537.36 (KHTML, like Gecko) Chrome/85.0.4183.121 Safari/537.36",WebKit,Chrome,85.0.4183.121,Windows,10,,,,
76,1,"""",html-keyboard-response,43,173106,0.0-2.0-4.3,A2FGKKWP33DFWS,43.055,387,2,A2FGKKWP33DFWS,387,"""","""","""","""","""","""","""","""",null,"<p style=""font-size: 48px;"">ready?</p>","""",null,"""","""","""","""","""","""","""","""","""","""","""","""","""",10/7/2020 12:55,69.254.67.230,"Mozilla/5.0 (Windows NT 10.0; Win64; x64) AppleWebKit/537.36 (KHTML, like Gecko) Chrome/85.0.4183.121 Safari/537.36",WebKit,Chrome,85.0.4183.121,Windows,10,,,,
76,1,TRUE,animation,44,180819,0.0-2.0-5.3,A2FGKKWP33DFWS,43.055,387,2,A2FGKKWP33DFWS,387,"""","""","""","""","""","""","[{""stimulus"":""img/04_R_filler_absent.jpg"",""time"":320.9900000001653},{""stimulus"":""blank"",""time"":562.114999996993},{""stimulus"":""img/04_R_filler_absent.jpg"",""time"":641.1099999968428},{""stimulus"":""blank"",""time"":881.744999998773},{""stimulus"":""img/04_R_filler_present.jpg"",""time"":961.7999999973108},{""stimulus"":""blank"",""time"":1203.349999999773},{""stimulus"":""img/04_R_filler_present.jpg"",""time"":1281.1750000000757},{""stimulus"":""blank"",""time"":1522.1649999984947},{""stimulus"":""img/04_R_filler_absent.jpg"",""time"":1601.5899999983958},{""stimulus"":""blank"",""time"":1842.6049999980023},{""stimulus"":""img/04_R_filler_absent.jpg"",""time"":1921.2950000001001},{""stimulus"":""blank"",""time"":2162.384999999631},{""stimulus"":""img/04_R_filler_present.jpg"",""time"":2241.554999996879},{""stimulus"":""blank"",""time"":2482.994999998482},{""stimulus"":""img/04_R_filler_present.jpg"",""time"":2561.744999999064},{""stimulus"":""blank"",""time"":2803.059999998368},{""stimulus"":""img/04_R_filler_absent.jpg"",""time"":2881.584999999177},{""stimulus"":""blank"",""time"":3122.989999999845},{""stimulus"":""img/04_R_filler_absent.jpg"",""time"":3201.5250000004016},{""stimulus"":""blank"",""time"":3442.3599999972794},{""stimulus"":""img/04_R_filler_present.jpg"",""time"":3520.684999999503},{""stimulus"":""blank"",""time"":3761.0099999983504},{""stimulus"":""img/04_R_filler_present.jpg"",""time"":3841.244999999617},{""stimulus"":""blank"",""time"":4081.7499999975553},{""stimulus"":""img/04_R_filler_absent.jpg"",""time"":4161.355000000185},{""stimulus"":""blank"",""time"":4402.879999997822},{""stimulus"":""img/04_R_filler_absent.jpg"",""time"":4481.469999998808},{""stimulus"":""blank"",""time"":4722.149999997782},{""stimulus"":""img/04_R_filler_present.jpg"",""time"":4801.744999997027},{""stimulus"":""blank"",""time"":5043.304999999236},{""stimulus"":""img/04_R_filler_present.jpg"",""time"":5120.609999998123},{""stimulus"":""blank"",""time"":5361.554999999498},{""stimulus"":""img/04_R_filler_absent.jpg"",""time"":5442.424999997456},{""stimulus"":""blank"",""time"":5683.44999999681},{""stimulus"":""img/04_R_filler_absent.jpg"",""time"":5761.57499999681},{""stimulus"":""blank"",""time"":6002.02999999965},{""stimulus"":""img/04_R_filler_present.jpg"",""time"":6081.089999999676},{""stimulus"":""blank"",""time"":6322.000000000116},{""stimulus"":""img/04_R_filler_present.jpg"",""time"":6401.299999997718},{""stimulus"":""blank"",""time"":6653.1749999994645},{""stimulus"":""img/04_R_filler_absent.jpg"",""time"":6721.499999999651},{""stimulus"":""blank"",""time"":6962.485000000015},{""stimulus"":""img/04_R_filler_absent.jpg"",""time"":7041.349999999511},{""stimulus"":""blank"",""time"":7281.5149999987625},{""stimulus"":""img/04_R_filler_present.jpg"",""time"":7360.7799999990675},{""stimulus"":""blank"",""time"":7602.1249999976135},{""stimulus"":""img/04_R_filler_present.jpg"",""time"":7681.54499999946}]","[{""key_press"":32,""rt"":7707.6300000007905,""stimulus"":""img/04_R_filler_present.jpg""}]",7707.67,4,R,"""","""","2,0","""","""","""","""","""","""","""","""","""","""","""",10/7/2020 12:55,69.254.67.230,"Mozilla/5.0 (Windows NT 10.0; Win64; x64) AppleWebKit/537.36 (KHTML, like Gecko) Chrome/85.0.4183.121 Safari/537.36",WebKit,Chrome,85.0.4183.121,Windows,10,,,,
76,1,"""",image-button-response,45,183530,0.0-2.0-6.3,A2FGKKWP33DFWS,43.055,387,2,A2FGKKWP33DFWS,387,"""","""","""","""","""","""","""","""",2707.995,detection grids/04R.jpg,"""","""",2,"""",TRUE,"""","""","""","""","""","""","""","""","""","""",10/7/2020 12:55,69.254.67.230,"Mozilla/5.0 (Windows NT 10.0; Win64; x64) AppleWebKit/537.36 (KHTML, like Gecko) Chrome/85.0.4183.121 Safari/537.36",WebKit,Chrome,85.0.4183.121,Windows,10,,,,
76,1,"""",image-button-response,46,186218,0.0-2.0-7.3,A2FGKKWP33DFWS,43.055,387,2,A2FGKKWP33DFWS,387,"""","""","""","""","""","""","""","""",2681.79,detection grids/04R.jpg,"""","""",0,"""",TRUE,"""","""","""","""","""","""","""","""","""","""",10/7/2020 12:55,69.254.67.230,"Mozilla/5.0 (Windows NT 10.0; Win64; x64) AppleWebKit/537.36 (KHTML, like Gecko) Chrome/85.0.4183.121 Safari/537.36",WebKit,Chrome,85.0.4183.121,Windows,10,,,,
76,1,"""",call-function,47,186220,0.0-2.0-0.4,A2FGKKWP33DFWS,43.055,387,2,A2FGKKWP33DFWS,387,[object Object],"""","""","""","""","""","""","""","""","""","""","""","""","""","""","""","""","""","""","""","""","""","""","""","""",10/7/2020 12:55,69.254.67.230,"Mozilla/5.0 (Windows NT 10.0; Win64; x64) AppleWebKit/537.36 (KHTML, like Gecko) Chrome/85.0.4183.121 Safari/537.36",WebKit,Chrome,85.0.4183.121,Windows,10,,,,
76,1,"""",html-keyboard-response,48,186221,0.0-2.0-1.4,A2FGKKWP33DFWS,43.055,387,2,A2FGKKWP33DFWS,387,[object Object],"""","""","""","""","""","""","""","""","""","""","""","""","""","""","""","""","""","""","""","""","""","""","""","""",10/7/2020 12:55,69.254.67.230,"Mozilla/5.0 (Windows NT 10.0; Win64; x64) AppleWebKit/537.36 (KHTML, like Gecko) Chrome/85.0.4183.121 Safari/537.36",WebKit,Chrome,85.0.4183.121,Windows,10,,,,
76,1,"""",html-keyboard-response,49,187222,0.0-2.0-2.4,A2FGKKWP33DFWS,43.055,387,2,A2FGKKWP33DFWS,387,"""","""","""","""","""","""","""","""",null,"<p style=""font-size: 48px;"">ready?</p>","""",null,"""","""","""","""","""","""","""","""","""","""","""","""","""",10/7/2020 12:55,69.254.67.230,"Mozilla/5.0 (Windows NT 10.0; Win64; x64) AppleWebKit/537.36 (KHTML, like Gecko) Chrome/85.0.4183.121 Safari/537.36",WebKit,Chrome,85.0.4183.121,Windows,10,,,,
76,1,"""",html-keyboard-response,50,188226,0.0-2.0-3.4,A2FGKKWP33DFWS,43.055,387,2,A2FGKKWP33DFWS,387,"""","""","""","""","""","""","""","""",null,"<p style=""font-size: 48px;"">ready?</p>","""",null,"""","""","""","""","""","""","""","""","""","""","""","""","""",10/7/2020 12:55,69.254.67.230,"Mozilla/5.0 (Windows NT 10.0; Win64; x64) AppleWebKit/537.36 (KHTML, like Gecko) Chrome/85.0.4183.121 Safari/537.36",WebKit,Chrome,85.0.4183.121,Windows,10,,,,
76,1,"""",html-keyboard-response,51,189227,0.0-2.0-4.4,A2FGKKWP33DFWS,43.055,387,2,A2FGKKWP33DFWS,387,"""","""","""","""","""","""","""","""",null,"<p style=""font-size: 48px;"">ready?</p>","""",null,"""","""","""","""","""","""","""","""","""","""","""","""","""",10/7/2020 12:55,69.254.67.230,"Mozilla/5.0 (Windows NT 10.0; Win64; x64) AppleWebKit/537.36 (KHTML, like Gecko) Chrome/85.0.4183.121 Safari/537.36",WebKit,Chrome,85.0.4183.121,Windows,10,,,,
