run_id,condition,success,trial_type,trial_index,time_elapsed,internal_node_id,rt,stimulus,key_press,viewing_distance_cm,cardWidth_px,final_width_px,scale_factor,item_width,pixels_unit_screen,pixels_per_unit,animation_sequence,responses,button_pressed,value,col_row_answers,correct_response,question_order,recorded_at,ip,user_agent,device,browser,browser_version,platform,platform_version
4,1,TRUE,fullscreen,0,8774,0.0-0.0-0.0,"""","""","""","""","""","""","""","""","""","""","""","""","""","""","""","""","""",9/13/2020 11:44,68.184.194.251,Mozilla/5.0 (Macintosh; Intel Mac OS X 10.6; rv:48.0) Gecko/20100101 Firefox/48.0,Macintosh,Firefox,48,OS X,10.6
4,1,"""",html-keyboard-response,1,12018,0.0-0.0-1.0-0.0,3234.175,<div class='center'>Welcome to the study!<br>     <p>Your participation will help us investigate human precision and reaction-times.</p>    <p >Please read the instructions carefully.</p>    <p align='center'><i>Press the space bar to continue</i></p></div>,32,"""","""","""","""","""","""","""","""","""","""","""","""","""","""",9/13/2020 11:44,68.184.194.251,Mozilla/5.0 (Macintosh; Intel Mac OS X 10.6; rv:48.0) Gecko/20100101 Firefox/48.0,Macintosh,Firefox,48,OS X,10.6
4,1,"""",html-keyboard-response,2,16705,0.0-0.0-1.0-1.0,4682.585,"<div class='center'><p>In order to begin,       we first need to measure the size of your screen and the distance you are sitting from it.</p>      <p>This will allow us to calibrate the experiment's presentation size specifically for you.</p>      <p>After this short calibration, we will continue with the main task of       this study.</p>      <p align='center'><i>Press the space bar to continue</i></p></div>",32,"""","""","""","""","""","""","""","""","""","""","""","""","""","""",9/13/2020 11:44,68.184.194.251,Mozilla/5.0 (Macintosh; Intel Mac OS X 10.6; rv:48.0) Gecko/20100101 Firefox/48.0,Macintosh,Firefox,48,OS X,10.6
4,1,"""",html-keyboard-response,3,20649,0.0-0.0-1.0-2.0,3938.02,"<div class='center'><p>First, please adjust your web browser's zoom level to 100%, and set your screen brightness to the maximum level.</p>      <p>We ask you to not change this throughout the whole course of the experiment.</p>      <p align='center'><i>Press the space bar to continue</i></p></div>",32,"""","""","""","""","""","""","""","""","""","""","""","""","""","""",9/13/2020 11:44,68.184.194.251,Mozilla/5.0 (Macintosh; Intel Mac OS X 10.6; rv:48.0) Gecko/20100101 Firefox/48.0,Macintosh,Firefox,48,OS X,10.6
4,1,"""",html-keyboard-response,4,25369,0.0-0.0-1.0-3.0,4717.275,"<div class='center'><p>For the calibration stage, you will need a credit card.</p>      <p>Don't worry, the credit card will be used just as a size measuring tool.</p>      <p>Any credit card will do.</p>      <p align='center'><i>Press the space bar to continue</i></p></div>",32,"""","""","""","""","""","""","""","""","""","""","""","""","""","""",9/13/2020 11:44,68.184.194.251,Mozilla/5.0 (Macintosh; Intel Mac OS X 10.6; rv:48.0) Gecko/20100101 Firefox/48.0,Macintosh,Firefox,48,OS X,10.6
4,1,"""",virtual-chin,5,104304,0.0-0.0-2.0,"""","""","""",51.78,288,"""","""","""","""","""","""","""","""","""","""","""","""",9/13/2020 11:44,68.184.194.251,Mozilla/5.0 (Macintosh; Intel Mac OS X 10.6; rv:48.0) Gecko/20100101 Firefox/48.0,Macintosh,Firefox,48,OS X,10.6
4,1,"""",new-resize,6,104308,0.0-0.0-3.0,"""","""","""","""","""",288,0.568888889,3.375,85.33333333,150,"""","""","""","""","""","""","""",9/13/2020 11:44,68.184.194.251,Mozilla/5.0 (Macintosh; Intel Mac OS X 10.6; rv:48.0) Gecko/20100101 Firefox/48.0,Macintosh,Firefox,48,OS X,10.6
4,1,"""",animation,7,104330,0.0-0.0-4.0,"""","""","""","""","""","""","""","""","""","""","[{""stimulus"":""img/demo1_absent.jpg"",""time"":12.529999999998836}]",[],"""","""","""","""","""",9/13/2020 11:44,68.184.194.251,Mozilla/5.0 (Macintosh; Intel Mac OS X 10.6; rv:48.0) Gecko/20100101 Firefox/48.0,Macintosh,Firefox,48,OS X,10.6
4,1,"""",html-keyboard-response,8,109646,0.0-0.0-5.0-0.0,5313.935,<p style='font-size: 28px;'>We finished the calibration stage! We will now continue to the main task of this experiment.</p>                <p style='font-size: 28px;'><b>We remind you to make an effort to move as little as possible until the end of the task.</b></p>                <p style='font-size: 28px;'><b>Please read the following instructions carefully.</b></p>    <p style='font-size: 24px;'><i>Press the space bar to continue to the instructions</i></p>,32,"""","""","""","""","""","""","""","""","""","""","""","""","""","""",9/13/2020 11:44,68.184.194.251,Mozilla/5.0 (Macintosh; Intel Mac OS X 10.6; rv:48.0) Gecko/20100101 Firefox/48.0,Macintosh,Firefox,48,OS X,10.6
4,1,"""",html-keyboard-response,9,124582,0.0-0.0-5.0-1.0,14930.3,"<p style='font-size: 28px;' align='justify'>In this part you will be asked to find a single flickering object within a scene.    Each time you will be presented with one scene. This scene will be static, except for one single object that will be appearing and disappearing.    Your goal will be to detect this object as quickly and accurately as you can. We will ask you to place your finger over the space bar, and once you have found the object press the space bar <b>as quickly as possible.</b></p>    <p style='font-size: 28px;' align='justify'>For each scene, you will have 60 seconds to do so. After that you will be asked about the location of the object.</P>    <p style='font-size: 28px;' align='justify'>We will now continue with a short practice before starting the main task.</p>    <p style='font-size: 24px;'><i>Press the space bar to continue</i></p>",32,"""","""","""","""","""","""","""","""","""","""","""","""","""","""",9/13/2020 11:44,68.184.194.251,Mozilla/5.0 (Macintosh; Intel Mac OS X 10.6; rv:48.0) Gecko/20100101 Firefox/48.0,Macintosh,Firefox,48,OS X,10.6
4,1,"""",animation,10,128269,0.0-1.0-0.0,3683.1,"""","""","""","""","""","""","""","""","""","[{""stimulus"":""img/demo1_absent.jpg"",""time"":502.26500000001397},{""stimulus"":""img/demo1_absent.jpg"",""time"":1002.1900000000023},{""stimulus"":""img/demo1_present.jpg"",""time"":1501.0200000000186},{""stimulus"":""img/demo1_present.jpg"",""time"":2001.6050000000105},{""stimulus"":""img/demo1_absent.jpg"",""time"":2501.554999999993},{""stimulus"":""img/demo1_absent.jpg"",""time"":3002.290000000008},{""stimulus"":""img/demo1_present.jpg"",""time"":3501.4800000000105}]","[{""key_press"":32,""rt"":3682.9100000000035,""stimulus"":""img/demo1_present.jpg""}]","""","""","""","""","""",9/13/2020 11:44,68.184.194.251,Mozilla/5.0 (Macintosh; Intel Mac OS X 10.6; rv:48.0) Gecko/20100101 Firefox/48.0,Macintosh,Firefox,48,OS X,10.6
4,1,"""",image-button-response,11,136797,0.0-1.0-1.0,8519.98,detection grids/demo1.jpg,"""","""","""","""","""","""","""","""","""","""",2,"""","""","""","""",9/13/2020 11:44,68.184.194.251,Mozilla/5.0 (Macintosh; Intel Mac OS X 10.6; rv:48.0) Gecko/20100101 Firefox/48.0,Macintosh,Firefox,48,OS X,10.6
4,1,"""",image-button-response,12,142094,0.0-1.0-2.0,5293.89,detection grids/demo1.jpg,"""","""","""","""","""","""","""","""","""","""",2,"""","""","""","""",9/13/2020 11:44,68.184.194.251,Mozilla/5.0 (Macintosh; Intel Mac OS X 10.6; rv:48.0) Gecko/20100101 Firefox/48.0,Macintosh,Firefox,48,OS X,10.6
4,1,"""",html-keyboard-response,13,144989,0.0-1.0-3.0-0.0,2890.625,"<p style='font-size: 28px;'>That was easy, right?</p>                <p style='font-size: 28px;'>Now let's have another practice. This time it will be a bit more difficult.</p>                <p style='font-size: 24px;'><i>Press the space bar to continue</i></p>",32,"""","""","""","""","""","""","""","""","""","""","""","""","""","""",9/13/2020 11:44,68.184.194.251,Mozilla/5.0 (Macintosh; Intel Mac OS X 10.6; rv:48.0) Gecko/20100101 Firefox/48.0,Macintosh,Firefox,48,OS X,10.6
4,1,"""",animation,14,150469,0.0-1.0-4.0,5476.285,"""","""","""","""","""","""","""","""","""","[{""stimulus"":""img/demo2_absent.jpg"",""time"":321.5899999999965},{""stimulus"":""blank"",""time"":562.265000000014},{""stimulus"":""img/demo2_absent.jpg"",""time"":640.6300000000047},{""stimulus"":""blank"",""time"":881.8450000000012},{""stimulus"":""img/demo2_present.jpg"",""time"":961.6849999999977},{""stimulus"":""blank"",""time"":1202.0400000000081},{""stimulus"":""img/demo2_present.jpg"",""time"":1280.445000000007},{""stimulus"":""blank"",""time"":1522.7850000000035},{""stimulus"":""img/demo2_absent.jpg"",""time"":1600.8399999999965},{""stimulus"":""blank"",""time"":1842.0599999999977},{""stimulus"":""img/demo2_absent.jpg"",""time"":1919.7550000000047},{""stimulus"":""blank"",""time"":2161.779999999999},{""stimulus"":""img/demo2_present.jpg"",""time"":2240.024999999994},{""stimulus"":""blank"",""time"":2482.0650000000023},{""stimulus"":""img/demo2_present.jpg"",""time"":2560.554999999993},{""stimulus"":""blank"",""time"":2802.3099999999977},{""stimulus"":""img/demo2_absent.jpg"",""time"":2880.7850000000035},{""stimulus"":""blank"",""time"":3122.6350000000093},{""stimulus"":""img/demo2_absent.jpg"",""time"":3200.2000000000116},{""stimulus"":""blank"",""time"":3442.524999999994},{""stimulus"":""img/demo2_present.jpg"",""time"":3520.4800000000105},{""stimulus"":""blank"",""time"":3762.6750000000175},{""stimulus"":""img/demo2_present.jpg"",""time"":3841.2300000000105},{""stimulus"":""blank"",""time"":4082.929999999993},{""stimulus"":""img/demo2_absent.jpg"",""time"":4160.74000000002},{""stimulus"":""blank"",""time"":4402.885000000009},{""stimulus"":""img/demo2_absent.jpg"",""time"":4480.494999999995},{""stimulus"":""blank"",""time"":4722.125},{""stimulus"":""img/demo2_present.jpg"",""time"":4801.110000000015},{""stimulus"":""blank"",""time"":5042.5350000000035},{""stimulus"":""img/demo2_present.jpg"",""time"":5120.4100000000035},{""stimulus"":""blank"",""time"":5362.095000000001},{""stimulus"":""img/demo2_absent.jpg"",""time"":5440.5500000000175}]","[{""key_press"":32,""rt"":5476.179999999993,""stimulus"":""img/demo2_absent.jpg""}]","""","""","""","""","""",9/13/2020 11:44,68.184.194.251,Mozilla/5.0 (Macintosh; Intel Mac OS X 10.6; rv:48.0) Gecko/20100101 Firefox/48.0,Macintosh,Firefox,48,OS X,10.6
4,1,"""",image-keyboard-response,15,152750,0.0-1.0-5.0,2272.47,detection grids/demo2.jpg,32,"""","""","""","""","""","""","""","""","""","""","""","""","""","""",9/13/2020 11:44,68.184.194.251,Mozilla/5.0 (Macintosh; Intel Mac OS X 10.6; rv:48.0) Gecko/20100101 Firefox/48.0,Macintosh,Firefox,48,OS X,10.6
4,1,"""",image-button-response,16,155877,0.0-1.0-6.0,3124.115,detection grids/demo2.jpg,"""","""","""","""","""","""","""","""","""","""",0,"""","""","""","""",9/13/2020 11:44,68.184.194.251,Mozilla/5.0 (Macintosh; Intel Mac OS X 10.6; rv:48.0) Gecko/20100101 Firefox/48.0,Macintosh,Firefox,48,OS X,10.6
4,1,"""",image-button-response,17,156660,0.0-1.0-7.0,779.115,detection grids/demo2.jpg,"""","""","""","""","""","""","""","""","""","""",1,"""","""","""","""",9/13/2020 11:44,68.184.194.251,Mozilla/5.0 (Macintosh; Intel Mac OS X 10.6; rv:48.0) Gecko/20100101 Firefox/48.0,Macintosh,Firefox,48,OS X,10.6
4,1,"""",html-keyboard-response,18,160734,0.0-1.0-8.0-0.0,4070.955,<p style='font-size: 28px;'>Great! You are now ready to continue to the main task.</p>                <p style='font-size: 28px;'>You will now be shown a series of similar trials one after another.</p>                <p style='font-size: 28px;'>It will take about 10-15 minutes until the next break.</p>                <p style='font-size: 28px;'>We ask you to keep your finger over the space bar and stay concentrated the whole time.</p>                <p style='font-size: 24px;'><i>Press the space bar when ready</i></p>,32,"""","""","""","""","""","""","""","""","""","""","""","""","""","""",9/13/2020 11:44,68.184.194.251,Mozilla/5.0 (Macintosh; Intel Mac OS X 10.6; rv:48.0) Gecko/20100101 Firefox/48.0,Macintosh,Firefox,48,OS X,10.6
4,1,"""",call-function,19,160739,0.0-2.0-0.0,"""","""","""","""","""","""","""","""","""","""","""","""","""",[object Object],"""","""","""",9/13/2020 11:44,68.184.194.251,Mozilla/5.0 (Macintosh; Intel Mac OS X 10.6; rv:48.0) Gecko/20100101 Firefox/48.0,Macintosh,Firefox,48,OS X,10.6
4,1,"""",html-keyboard-response,20,160742,0.0-2.0-1.0,"""","""","""","""","""","""","""","""","""","""","""","""","""",[object Object],"""","""","""",9/13/2020 11:44,68.184.194.251,Mozilla/5.0 (Macintosh; Intel Mac OS X 10.6; rv:48.0) Gecko/20100101 Firefox/48.0,Macintosh,Firefox,48,OS X,10.6
4,1,"""",html-keyboard-response,21,161743,0.0-2.0-2.0,null,"<p style=""font-size: 48px;"">ready?</p>",null,"""","""","""","""","""","""","""","""","""","""","""","""","""","""",9/13/2020 11:44,68.184.194.251,Mozilla/5.0 (Macintosh; Intel Mac OS X 10.6; rv:48.0) Gecko/20100101 Firefox/48.0,Macintosh,Firefox,48,OS X,10.6
4,1,"""",html-keyboard-response,22,163247,0.0-2.0-3.0,null,"<p style=""font-size: 48px;"">ready?</p>",null,"""","""","""","""","""","""","""","""","""","""","""","""","""","""",9/13/2020 11:44,68.184.194.251,Mozilla/5.0 (Macintosh; Intel Mac OS X 10.6; rv:48.0) Gecko/20100101 Firefox/48.0,Macintosh,Firefox,48,OS X,10.6
4,1,"""",html-keyboard-response,23,164750,0.0-2.0-4.0,null,"<p style=""font-size: 48px;"">ready?</p>",null,"""","""","""","""","""","""","""","""","""","""","""","""","""","""",9/13/2020 11:44,68.184.194.251,Mozilla/5.0 (Macintosh; Intel Mac OS X 10.6; rv:48.0) Gecko/20100101 Firefox/48.0,Macintosh,Firefox,48,OS X,10.6
4,1,"""",animation,24,186764,0.0-2.0-5.0,22009.37,"""","""","""","""","""","""","""","""","""","[{""stimulus"":""img/016_R_filler_absent.jpg"",""time"":321.58499999999185},{""stimulus"":""blank"",""time"":562.695000000007},{""stimulus"":""img/016_R_filler_absent.jpg"",""time"":640.6999999999825},{""stimulus"":""blank"",""time"":882.679999999993},{""stimulus"":""img/016_R_filler_present.jpg"",""time"":960.5899999999965},{""stimulus"":""blank"",""time"":1201.2550000000047},{""stimulus"":""img/016_R_filler_present.jpg"",""time"":1281.0449999999837},{""stimulus"":""blank"",""time"":1522.1650000000081},{""stimulus"":""img/016_R_filler_absent.jpg"",""time"":1600.1199999999953},{""stimulus"":""blank"",""time"":1841.609999999986},{""stimulus"":""img/016_R_filler_absent.jpg"",""time"":1919.9150000000081},{""stimulus"":""blank"",""time"":2161.790000000008},{""stimulus"":""img/016_R_filler_present.jpg"",""time"":2241.1600000000035},{""stimulus"":""blank"",""time"":2482.6600000000035},{""stimulus"":""img/016_R_filler_present.jpg"",""time"":2560.429999999993},{""stimulus"":""blank"",""time"":2801.5050000000047},{""stimulus"":""img/016_R_filler_absent.jpg"",""time"":2880.704999999987},{""stimulus"":""blank"",""time"":3122.2600000000093},{""stimulus"":""img/016_R_filler_absent.jpg"",""time"":3200.6900000000023},{""stimulus"":""blank"",""time"":3441.6600000000035},{""stimulus"":""img/016_R_filler_present.jpg"",""time"":3520.764999999985},{""stimulus"":""blank"",""time"":3761.709999999992},{""stimulus"":""img/016_R_filler_present.jpg"",""time"":3840.899999999994},{""stimulus"":""blank"",""time"":4082.5350000000035},{""stimulus"":""img/016_R_filler_absent.jpg"",""time"":4160.654999999999},{""stimulus"":""blank"",""time"":4402.299999999988},{""stimulus"":""img/016_R_filler_absent.jpg"",""time"":4480.440000000002},{""stimulus"":""blank"",""time"":4721.595000000001},{""stimulus"":""img/016_R_filler_present.jpg"",""time"":4800.559999999998},{""stimulus"":""blank"",""time"":5041.654999999999},{""stimulus"":""img/016_R_filler_present.jpg"",""time"":5120.704999999987},{""stimulus"":""blank"",""time"":5362.470000000001},{""stimulus"":""img/016_R_filler_absent.jpg"",""time"":5441.100000000006},{""stimulus"":""blank"",""time"":5683.0350000000035},{""stimulus"":""img/016_R_filler_absent.jpg"",""time"":5759.809999999998},{""stimulus"":""blank"",""time"":6001.6449999999895},{""stimulus"":""img/016_R_filler_present.jpg"",""time"":6080.505000000005},{""stimulus"":""blank"",""time"":6322.3249999999825},{""stimulus"":""img/016_R_filler_present.jpg"",""time"":6400.2850000000035},{""stimulus"":""blank"",""time"":6641.229999999981},{""stimulus"":""img/016_R_filler_absent.jpg"",""time"":6720.119999999995},{""stimulus"":""blank"",""time"":6961.445000000007},{""stimulus"":""img/016_R_filler_absent.jpg"",""time"":7040.1600000000035},{""stimulus"":""blank"",""time"":7281.565000000002},{""stimulus"":""img/016_R_filler_present.jpg"",""time"":7359.790000000008},{""stimulus"":""blank"",""time"":7601},{""stimulus"":""img/016_R_filler_present.jpg"",""time"":7680.989999999991},{""stimulus"":""blank"",""time"":7922.684999999998},{""stimulus"":""img/016_R_filler_absent.jpg"",""time"":8000.2699999999895},{""stimulus"":""blank"",""time"":8241.76999999999},{""stimulus"":""img/016_R_filler_absent.jpg"",""time"":8319.994999999995},{""stimulus"":""blank"",""time"":8561.51999999999},{""stimulus"":""img/016_R_filler_present.jpg"",""time"":8640.324999999983},{""stimulus"":""blank"",""time"":8881.559999999998},{""stimulus"":""img/016_R_filler_present.jpg"",""time"":8960.199999999983},{""stimulus"":""blank"",""time"":9201.440000000002},{""stimulus"":""img/016_R_filler_absent.jpg"",""time"":9280.839999999997},{""stimulus"":""blank"",""time"":9522.279999999999},{""stimulus"":""img/016_R_filler_absent.jpg"",""time"":9600.660000000003},{""stimulus"":""blank"",""time"":9841.630000000005},{""stimulus"":""img/016_R_filler_present.jpg"",""time"":9920.449999999983},{""stimulus"":""blank"",""time"":10161.785000000003},{""stimulus"":""img/016_R_filler_present.jpg"",""time"":10240.424999999988},{""stimulus"":""blank"",""time"":10481.774999999994},{""stimulus"":""img/016_R_filler_absent.jpg"",""time"":10560.354999999981},{""stimulus"":""blank"",""time"":10802.13500000001},{""stimulus"":""img/016_R_filler_absent.jpg"",""time"":10880.424999999988},{""stimulus"":""blank"",""time"":11121.954999999987},{""stimulus"":""img/016_R_filler_present.jpg"",""time"":11200.279999999999},{""stimulus"":""blank"",""time"":11442.179999999993},{""stimulus"":""img/016_R_filler_present.jpg"",""time"":11520.320000000007},{""stimulus"":""blank"",""time"":11761.744999999995},{""stimulus"":""img/016_R_filler_absent.jpg"",""time"":11840.579999999987},{""stimulus"":""blank"",""time"":12081.755000000005},{""stimulus"":""img/016_R_filler_absent.jpg"",""time"":12160.160000000003},{""stimulus"":""blank"",""time"":12402.264999999985},{""stimulus"":""img/016_R_filler_present.jpg"",""time"":12479.904999999999},{""stimulus"":""blank"",""time"":12721.190000000002},{""stimulus"":""img/016_R_filler_present.jpg"",""time"":12801.26000000001},{""stimulus"":""blank"",""time"":13042.824999999983},{""stimulus"":""img/016_R_filler_absent.jpg"",""time"":13120.294999999984},{""stimulus"":""blank"",""time"":13361.89499999999},{""stimulus"":""img/016_R_filler_absent.jpg"",""time"":13440.619999999995},{""stimulus"":""blank"",""time"":13681.949999999983},{""stimulus"":""img/016_R_filler_present.jpg"",""time"":13761.065000000002},{""stimulus"":""blank"",""time"":14002.229999999981},{""stimulus"":""img/016_R_filler_present.jpg"",""time"":14079.919999999984},{""stimulus"":""blank"",""time"":14321.01999999999},{""stimulus"":""img/016_R_filler_absent.jpg"",""time"":14400.454999999987},{""stimulus"":""blank"",""time"":14642.119999999995},{""stimulus"":""img/016_R_filler_absent.jpg"",""time"":14721.049999999988},{""stimulus"":""blank"",""time"":14962.23999999999},{""stimulus"":""img/016_R_filler_present.jpg"",""time"":15040.424999999988},{""stimulus"":""blank"",""time"":15282.389999999985},{""stimulus"":""img/016_R_filler_present.jpg"",""time"":15360.225000000006},{""stimulus"":""blank"",""time"":15601.845000000001},{""stimulus"":""img/016_R_filler_absent.jpg"",""time"":15679.709999999992},{""stimulus"":""blank"",""time"":15920.915000000008},{""stimulus"":""img/016_R_filler_absent.jpg"",""time"":16000.734999999986},{""stimulus"":""blank"",""time"":16241.984999999986},{""stimulus"":""img/016_R_filler_present.jpg"",""time"":16320.419999999984},{""stimulus"":""blank"",""time"":16562.109999999986},{""stimulus"":""img/016_R_filler_present.jpg"",""time"":16640.044999999984},{""stimulus"":""blank"",""time"":16881.320000000007},{""stimulus"":""img/016_R_filler_absent.jpg"",""time"":16960.369999999995},{""stimulus"":""blank"",""time"":17202.26999999999},{""stimulus"":""img/016_R_filler_absent.jpg"",""time"":17280.195000000007},{""stimulus"":""blank"",""time"":17521.609999999986},{""stimulus"":""img/016_R_filler_present.jpg"",""time"":17600.040000000008},{""stimulus"":""blank"",""time"":17841.544999999984},{""stimulus"":""img/016_R_filler_present.jpg"",""time"":17920.244999999995},{""stimulus"":""blank"",""time"":18161.23999999999},{""stimulus"":""img/016_R_filler_absent.jpg"",""time"":18239.934999999998},{""stimulus"":""blank"",""time"":18481.774999999994},{""stimulus"":""img/016_R_filler_absent.jpg"",""time"":18560.505000000005},{""stimulus"":""blank"",""time"":18802.225000000006},{""stimulus"":""img/016_R_filler_present.jpg"",""time"":18880.14499999999},{""stimulus"":""blank"",""time"":19121.630000000005},{""stimulus"":""img/016_R_filler_present.jpg"",""time"":19199.579999999987},{""stimulus"":""blank"",""time"":19441.574999999983},{""stimulus"":""img/016_R_filler_absent.jpg"",""time"":19520.440000000002},{""stimulus"":""blank"",""time"":19761.48000000001},{""stimulus"":""img/016_R_filler_absent.jpg"",""time"":19840.195000000007},{""stimulus"":""blank"",""time"":20082.139999999985},{""stimulus"":""img/016_R_filler_present.jpg"",""time"":20160.619999999995},{""stimulus"":""blank"",""time"":20401.845},{""stimulus"":""img/016_R_filler_present.jpg"",""time"":20480.834999999992},{""stimulus"":""blank"",""time"":20722.929999999993},{""stimulus"":""img/016_R_filler_absent.jpg"",""time"":20800.949999999983},{""stimulus"":""blank"",""time"":21042.51000000001},{""stimulus"":""img/016_R_filler_absent.jpg"",""time"":21120.959999999992},{""stimulus"":""blank"",""time"":21362.005000000005},{""stimulus"":""img/016_R_filler_present.jpg"",""time"":21441.304999999993},{""stimulus"":""blank"",""time"":21682.98000000001},{""stimulus"":""img/016_R_filler_present.jpg"",""time"":21760.324999999983},{""stimulus"":""blank"",""time"":22001.584999999992}]","[{""key_press"":32,""rt"":22009.26999999999,""stimulus"":""blank""}]","""","""","3,2","""","""",9/13/2020 11:44,68.184.194.251,Mozilla/5.0 (Macintosh; Intel Mac OS X 10.6; rv:48.0) Gecko/20100101 Firefox/48.0,Macintosh,Firefox,48,OS X,10.6
4,1,"""",image-button-response,25,191108,0.0-2.0-6.0,4337.59,detection grids/016R.jpg,"""","""","""","""","""","""","""","""","""","""",3,"""","""",TRUE,"""",9/13/2020 11:44,68.184.194.251,Mozilla/5.0 (Macintosh; Intel Mac OS X 10.6; rv:48.0) Gecko/20100101 Firefox/48.0,Macintosh,Firefox,48,OS X,10.6
4,1,"""",image-button-response,26,192100,0.0-2.0-7.0,986.725,detection grids/016R.jpg,"""","""","""","""","""","""","""","""","""","""",2,"""","""",TRUE,"""",9/13/2020 11:44,68.184.194.251,Mozilla/5.0 (Macintosh; Intel Mac OS X 10.6; rv:48.0) Gecko/20100101 Firefox/48.0,Macintosh,Firefox,48,OS X,10.6
4,1,"""",call-function,27,192104,0.0-2.0-0.1,"""","""","""","""","""","""","""","""","""","""","""","""","""",[object Object],"""","""","""",9/13/2020 11:44,68.184.194.251,Mozilla/5.0 (Macintosh; Intel Mac OS X 10.6; rv:48.0) Gecko/20100101 Firefox/48.0,Macintosh,Firefox,48,OS X,10.6
4,1,"""",html-keyboard-response,28,192107,0.0-2.0-1.1,"""","""","""","""","""","""","""","""","""","""","""","""","""",[object Object],"""","""","""",9/13/2020 11:44,68.184.194.251,Mozilla/5.0 (Macintosh; Intel Mac OS X 10.6; rv:48.0) Gecko/20100101 Firefox/48.0,Macintosh,Firefox,48,OS X,10.6
4,1,"""",html-keyboard-response,29,193108,0.0-2.0-2.1,null,"<p style=""font-size: 48px;"">ready?</p>",null,"""","""","""","""","""","""","""","""","""","""","""","""","""","""",9/13/2020 11:44,68.184.194.251,Mozilla/5.0 (Macintosh; Intel Mac OS X 10.6; rv:48.0) Gecko/20100101 Firefox/48.0,Macintosh,Firefox,48,OS X,10.6
4,1,"""",html-keyboard-response,30,194610,0.0-2.0-3.1,null,"<p style=""font-size: 48px;"">ready?</p>",null,"""","""","""","""","""","""","""","""","""","""","""","""","""","""",9/13/2020 11:44,68.184.194.251,Mozilla/5.0 (Macintosh; Intel Mac OS X 10.6; rv:48.0) Gecko/20100101 Firefox/48.0,Macintosh,Firefox,48,OS X,10.6
4,1,"""",html-keyboard-response,31,196115,0.0-2.0-4.1,null,"<p style=""font-size: 48px;"">ready?</p>",null,"""","""","""","""","""","""","""","""","""","""","""","""","""","""",9/13/2020 11:44,68.184.194.251,Mozilla/5.0 (Macintosh; Intel Mac OS X 10.6; rv:48.0) Gecko/20100101 Firefox/48.0,Macintosh,Firefox,48,OS X,10.6
4,1,"""",animation,32,229475,0.0-2.0-5.1,33359.9,"""","""","""","""","""","""","""","""","""","[{""stimulus"":""img/025_L_filler_absent.jpg"",""time"":320.90499999999884},{""stimulus"":""blank"",""time"":562.0100000000093},{""stimulus"":""img/025_L_filler_absent.jpg"",""time"":641.2799999999988},{""stimulus"":""blank"",""time"":882.8850000000093},{""stimulus"":""img/025_L_filler_present.jpg"",""time"":960.2700000000186},{""stimulus"":""blank"",""time"":1201.085000000021},{""stimulus"":""img/025_L_filler_present.jpg"",""time"":1280.4500000000116},{""stimulus"":""blank"",""time"":1521.8650000000198},{""stimulus"":""img/025_L_filler_absent.jpg"",""time"":1600.8950000000186},{""stimulus"":""blank"",""time"":1843},{""stimulus"":""img/025_L_filler_absent.jpg"",""time"":1921.3550000000105},{""stimulus"":""blank"",""time"":2162.9250000000175},{""stimulus"":""img/025_L_filler_present.jpg"",""time"":2240.6050000000105},{""stimulus"":""blank"",""time"":2481.7300000000105},{""stimulus"":""img/025_L_filler_present.jpg"",""time"":2560.790000000008},{""stimulus"":""blank"",""time"":2802.1350000000093},{""stimulus"":""img/025_L_filler_absent.jpg"",""time"":2880.475000000006},{""stimulus"":""blank"",""time"":3121.9500000000116},{""stimulus"":""img/025_L_filler_absent.jpg"",""time"":3200.460000000021},{""stimulus"":""blank"",""time"":3441.654999999999},{""stimulus"":""img/025_L_filler_present.jpg"",""time"":3520.235000000015},{""stimulus"":""blank"",""time"":3761.2300000000105},{""stimulus"":""img/025_L_filler_present.jpg"",""time"":3840.3700000000244},{""stimulus"":""blank"",""time"":4081.420000000013},{""stimulus"":""img/025_L_filler_absent.jpg"",""time"":4160.4800000000105},{""stimulus"":""blank"",""time"":4401.870000000024},{""stimulus"":""img/025_L_filler_absent.jpg"",""time"":4480.029999999999},{""stimulus"":""blank"",""time"":4721.165000000008},{""stimulus"":""img/025_L_filler_present.jpg"",""time"":4799.75},{""stimulus"":""blank"",""time"":5040.555000000022},{""stimulus"":""img/025_L_filler_present.jpg"",""time"":5121.040000000008},{""stimulus"":""blank"",""time"":5362.059999999998},{""stimulus"":""img/025_L_filler_absent.jpg"",""time"":5440.245000000024},{""stimulus"":""blank"",""time"":5682.5},{""stimulus"":""img/025_L_filler_absent.jpg"",""time"":5760.020000000019},{""stimulus"":""blank"",""time"":6001.540000000008},{""stimulus"":""img/025_L_filler_present.jpg"",""time"":6079.600000000006},{""stimulus"":""blank"",""time"":6320.680000000022},{""stimulus"":""img/025_L_filler_present.jpg"",""time"":6400.3550000000105},{""stimulus"":""blank"",""time"":6641.825000000012},{""stimulus"":""img/025_L_filler_absent.jpg"",""time"":6720.710000000021},{""stimulus"":""blank"",""time"":6962.055000000022},{""stimulus"":""img/025_L_filler_absent.jpg"",""time"":7040.745000000024},{""stimulus"":""blank"",""time"":7282.154999999999},{""stimulus"":""img/025_L_filler_present.jpg"",""time"":7360.9100000000035},{""stimulus"":""blank"",""time"":7602.485000000015},{""stimulus"":""img/025_L_filler_present.jpg"",""time"":7680.904999999999},{""stimulus"":""blank"",""time"":7922.145000000019},{""stimulus"":""img/025_L_filler_absent.jpg"",""time"":8001.125},{""stimulus"":""blank"",""time"":8241.975000000006},{""stimulus"":""img/025_L_filler_absent.jpg"",""time"":8319.920000000013},{""stimulus"":""blank"",""time"":8561.875},{""stimulus"":""img/025_L_filler_present.jpg"",""time"":8640.390000000014},{""stimulus"":""blank"",""time"":8882.130000000005},{""stimulus"":""img/025_L_filler_present.jpg"",""time"":8960.770000000019},{""stimulus"":""blank"",""time"":9201.880000000005},{""stimulus"":""img/025_L_filler_absent.jpg"",""time"":9281.455000000016},{""stimulus"":""blank"",""time"":9523.75},{""stimulus"":""img/025_L_filler_absent.jpg"",""time"":9600.160000000003},{""stimulus"":""blank"",""time"":9841.945000000007},{""stimulus"":""img/025_L_filler_present.jpg"",""time"":9919.660000000003},{""stimulus"":""blank"",""time"":10161.315000000002},{""stimulus"":""img/025_L_filler_present.jpg"",""time"":10240.420000000013},{""stimulus"":""blank"",""time"":10482.25},{""stimulus"":""img/025_L_filler_absent.jpg"",""time"":10560.300000000017},{""stimulus"":""blank"",""time"":10801.650000000023},{""stimulus"":""img/025_L_filler_absent.jpg"",""time"":10880.74000000002},{""stimulus"":""blank"",""time"":11122.420000000013},{""stimulus"":""img/025_L_filler_present.jpg"",""time"":11201.180000000022},{""stimulus"":""blank"",""time"":11442.860000000015},{""stimulus"":""img/025_L_filler_present.jpg"",""time"":11520.059999999998},{""stimulus"":""blank"",""time"":11761.275000000023},{""stimulus"":""img/025_L_filler_absent.jpg"",""time"":11840.214999999997},{""stimulus"":""blank"",""time"":12081.225000000006},{""stimulus"":""img/025_L_filler_absent.jpg"",""time"":12160.25},{""stimulus"":""blank"",""time"":12401.48000000001},{""stimulus"":""img/025_L_filler_present.jpg"",""time"":12480.60500000001},{""stimulus"":""blank"",""time"":12722.589999999997},{""stimulus"":""img/025_L_filler_present.jpg"",""time"":12800.775000000023},{""stimulus"":""blank"",""time"":13042.705000000016},{""stimulus"":""img/025_L_filler_absent.jpg"",""time"":13120.690000000002},{""stimulus"":""blank"",""time"":13361.665000000008},{""stimulus"":""img/025_L_filler_absent.jpg"",""time"":13441.195000000007},{""stimulus"":""blank"",""time"":13682.279999999999},{""stimulus"":""img/025_L_filler_present.jpg"",""time"":13759.805000000022},{""stimulus"":""blank"",""time"":14001.540000000008},{""stimulus"":""img/025_L_filler_present.jpg"",""time"":14080.550000000017},{""stimulus"":""blank"",""time"":14321.76000000001},{""stimulus"":""img/025_L_filler_absent.jpg"",""time"":14400.61500000002},{""stimulus"":""blank"",""time"":14642.130000000005},{""stimulus"":""img/025_L_filler_absent.jpg"",""time"":14720.88500000001},{""stimulus"":""blank"",""time"":14962.525000000023},{""stimulus"":""img/025_L_filler_present.jpg"",""time"":15040.76000000001},{""stimulus"":""blank"",""time"":15282.420000000013},{""stimulus"":""img/025_L_filler_present.jpg"",""time"":15360.345000000001},{""stimulus"":""blank"",""time"":15602.170000000013},{""stimulus"":""img/025_L_filler_absent.jpg"",""time"":15680.875},{""stimulus"":""blank"",""time"":15921.825000000012},{""stimulus"":""img/025_L_filler_absent.jpg"",""time"":16001.279999999999},{""stimulus"":""blank"",""time"":16242.559999999998},{""stimulus"":""img/025_L_filler_present.jpg"",""time"":16319.779999999999},{""stimulus"":""blank"",""time"":16561.39500000002},{""stimulus"":""img/025_L_filler_present.jpg"",""time"":16641.295000000013},{""stimulus"":""blank"",""time"":16882.175000000017},{""stimulus"":""img/025_L_filler_absent.jpg"",""time"":16960.08500000002},{""stimulus"":""blank"",""time"":17201.400000000023},{""stimulus"":""img/025_L_filler_absent.jpg"",""time"":17279.765000000014},{""stimulus"":""blank"",""time"":17521.630000000005},{""stimulus"":""img/025_L_filler_present.jpg"",""time"":17600.545000000013},{""stimulus"":""blank"",""time"":17841.660000000003},{""stimulus"":""img/025_L_filler_present.jpg"",""time"":17920.434999999998},{""stimulus"":""blank"",""time"":18161.98000000001},{""stimulus"":""img/025_L_filler_absent.jpg"",""time"":18240.515000000014},{""stimulus"":""blank"",""time"":18481.86500000002},{""stimulus"":""img/025_L_filler_absent.jpg"",""time"":18560.300000000017},{""stimulus"":""blank"",""time"":18801.940000000002},{""stimulus"":""img/025_L_filler_present.jpg"",""time"":18880.07500000001},{""stimulus"":""blank"",""time"":19121.830000000016},{""stimulus"":""img/025_L_filler_present.jpg"",""time"":19199.75},{""stimulus"":""blank"",""time"":19441.175000000017},{""stimulus"":""img/025_L_filler_absent.jpg"",""time"":19521.03},{""stimulus"":""blank"",""time"":19762.540000000008},{""stimulus"":""img/025_L_filler_absent.jpg"",""time"":19840.184999999998},{""stimulus"":""blank"",""time"":20081.88500000001},{""stimulus"":""img/025_L_filler_present.jpg"",""time"":20160.475000000006},{""stimulus"":""blank"",""time"":20401.905},{""stimulus"":""img/025_L_filler_present.jpg"",""time"":20480.080000000016},{""stimulus"":""blank"",""time"":20722.120000000024},{""stimulus"":""img/025_L_filler_absent.jpg"",""time"":20800.36500000002},{""stimulus"":""blank"",""time"":21042.559999999998},{""stimulus"":""img/025_L_filler_absent.jpg"",""time"":21120.70000000001},{""stimulus"":""blank"",""time"":21362.150000000023},{""stimulus"":""img/025_L_filler_present.jpg"",""time"":21440.425000000017},{""stimulus"":""blank"",""time"":21682.015000000014},{""stimulus"":""img/025_L_filler_present.jpg"",""time"":21760.245000000024},{""stimulus"":""blank"",""time"":22002.120000000024},{""stimulus"":""img/025_L_filler_absent.jpg"",""time"":22080.245000000024},{""stimulus"":""blank"",""time"":22322.214999999997},{""stimulus"":""img/025_L_filler_absent.jpg"",""time"":22400.790000000008},{""stimulus"":""blank"",""time"":22642.455000000016},{""stimulus"":""img/025_L_filler_present.jpg"",""time"":22720.214999999997},{""stimulus"":""blank"",""time"":22961.48000000001},{""stimulus"":""img/025_L_filler_present.jpg"",""time"":23039.845},{""stimulus"":""blank"",""time"":23281.625},{""stimulus"":""img/025_L_filler_absent.jpg"",""time"":23361.040000000008},{""stimulus"":""blank"",""time"":23602.535000000003},{""stimulus"":""img/025_L_filler_absent.jpg"",""time"":23680.485000000015},{""stimulus"":""blank"",""time"":23922.095},{""stimulus"":""img/025_L_filler_present.jpg"",""time"":24000.820000000007},{""stimulus"":""blank"",""time"":24242.505000000005},{""stimulus"":""img/025_L_filler_present.jpg"",""time"":24321.005000000005},{""stimulus"":""blank"",""time"":24562.45000000001},{""stimulus"":""img/025_L_filler_absent.jpg"",""time"":24640.350000000006},{""stimulus"":""blank"",""time"":24882.065000000002},{""stimulus"":""img/025_L_filler_absent.jpg"",""time"":24959.820000000007},{""stimulus"":""blank"",""time"":25201.380000000005},{""stimulus"":""img/025_L_filler_present.jpg"",""time"":25280.850000000006},{""stimulus"":""blank"",""time"":25522.390000000014},{""stimulus"":""img/025_L_filler_present.jpg"",""time"":25601.195000000007},{""stimulus"":""blank"",""time"":25842.515000000014},{""stimulus"":""img/025_L_filler_absent.jpg"",""time"":25920.25},{""stimulus"":""blank"",""time"":26161.27000000002},{""stimulus"":""img/025_L_filler_absent.jpg"",""time"":26240.320000000007},{""stimulus"":""blank"",""time"":26481.71000000002},{""stimulus"":""img/025_L_filler_present.jpg"",""time"":26560.475000000006},{""stimulus"":""blank"",""time"":26801.485000000015},{""stimulus"":""img/025_L_filler_present.jpg"",""time"":26880.225000000006},{""stimulus"":""blank"",""time"":27121.339999999997},{""stimulus"":""img/025_L_filler_absent.jpg"",""time"":27199.77000000002},{""stimulus"":""blank"",""time"":27441.595},{""stimulus"":""img/025_L_filler_absent.jpg"",""time"":27520.360000000015},{""stimulus"":""blank"",""time"":27761.725000000006},{""stimulus"":""img/025_L_filler_present.jpg"",""time"":27840.23000000001},{""stimulus"":""blank"",""time"":28082.22},{""stimulus"":""img/025_L_filler_present.jpg"",""time"":28159.905},{""stimulus"":""blank"",""time"":28401.39500000002},{""stimulus"":""img/025_L_filler_absent.jpg"",""time"":28480.83500000002},{""stimulus"":""blank"",""time"":28722.330000000016},{""stimulus"":""img/025_L_filler_absent.jpg"",""time"":28800.915000000008},{""stimulus"":""blank"",""time"":29042.35500000001},{""stimulus"":""img/025_L_filler_present.jpg"",""time"":29120.45000000001},{""stimulus"":""blank"",""time"":29361.86500000002},{""stimulus"":""img/025_L_filler_present.jpg"",""time"":29440.375},{""stimulus"":""blank"",""time"":29682.559999999998},{""stimulus"":""img/025_L_filler_absent.jpg"",""time"":29760.48000000001},{""stimulus"":""blank"",""time"":30001.580000000016},{""stimulus"":""img/025_L_filler_absent.jpg"",""time"":30080.320000000007},{""stimulus"":""blank"",""time"":30322.295000000013},{""stimulus"":""img/025_L_filler_present.jpg"",""time"":30400.07500000001},{""stimulus"":""blank"",""time"":30641.035000000003},{""stimulus"":""img/025_L_filler_present.jpg"",""time"":30720.5},{""stimulus"":""blank"",""time"":30961.945000000007},{""stimulus"":""img/025_L_filler_absent.jpg"",""time"":31040.205000000016},{""stimulus"":""blank"",""time"":31281.785000000003},{""stimulus"":""img/025_L_filler_absent.jpg"",""time"":31360.140000000014},{""stimulus"":""blank"",""time"":31601.5},{""stimulus"":""img/025_L_filler_present.jpg"",""time"":31680.58500000002},{""stimulus"":""blank"",""time"":31921.83500000002},{""stimulus"":""img/025_L_filler_present.jpg"",""time"":32000.13500000001},{""stimulus"":""blank"",""time"":32241.495000000024},{""stimulus"":""img/025_L_filler_absent.jpg"",""time"":32319.839999999997},{""stimulus"":""blank"",""time"":32561.295000000013},{""stimulus"":""img/025_L_filler_absent.jpg"",""time"":32641.20000000001},{""stimulus"":""blank"",""time"":32883.375},{""stimulus"":""img/025_L_filler_present.jpg"",""time"":32960.14500000002},{""stimulus"":""blank"",""time"":33202.05000000002},{""stimulus"":""img/025_L_filler_present.jpg"",""time"":33279.815}]","[{""key_press"":32,""rt"":33359.82000000001,""stimulus"":""img/025_L_filler_present.jpg""}]","""","""","1,0","""","""",9/13/2020 11:44,68.184.194.251,Mozilla/5.0 (Macintosh; Intel Mac OS X 10.6; rv:48.0) Gecko/20100101 Firefox/48.0,Macintosh,Firefox,48,OS X,10.6
4,1,"""",image-button-response,33,230587,0.0-2.0-6.1,1095.315,detection grids/025L.jpg,"""","""","""","""","""","""","""","""","""","""",4,"""","""",FALSE,"""",9/13/2020 11:44,68.184.194.251,Mozilla/5.0 (Macintosh; Intel Mac OS X 10.6; rv:48.0) Gecko/20100101 Firefox/48.0,Macintosh,Firefox,48,OS X,10.6
4,1,"""",image-button-response,34,232539,0.0-2.0-7.1,1950.725,detection grids/025L.jpg,"""","""","""","""","""","""","""","""","""","""",4,"""","""",FALSE,"""",9/13/2020 11:44,68.184.194.251,Mozilla/5.0 (Macintosh; Intel Mac OS X 10.6; rv:48.0) Gecko/20100101 Firefox/48.0,Macintosh,Firefox,48,OS X,10.6
4,1,"""",call-function,35,232542,0.0-2.0-0.2,"""","""","""","""","""","""","""","""","""","""","""","""","""",[object Object],"""","""","""",9/13/2020 11:44,68.184.194.251,Mozilla/5.0 (Macintosh; Intel Mac OS X 10.6; rv:48.0) Gecko/20100101 Firefox/48.0,Macintosh,Firefox,48,OS X,10.6
4,1,"""",html-keyboard-response,36,232545,0.0-2.0-1.2,"""","""","""","""","""","""","""","""","""","""","""","""","""",[object Object],"""","""","""",9/13/2020 11:44,68.184.194.251,Mozilla/5.0 (Macintosh; Intel Mac OS X 10.6; rv:48.0) Gecko/20100101 Firefox/48.0,Macintosh,Firefox,48,OS X,10.6
4,1,"""",html-keyboard-response,37,233546,0.0-2.0-2.2,null,"<p style=""font-size: 48px;"">ready?</p>",null,"""","""","""","""","""","""","""","""","""","""","""","""","""","""",9/13/2020 11:44,68.184.194.251,Mozilla/5.0 (Macintosh; Intel Mac OS X 10.6; rv:48.0) Gecko/20100101 Firefox/48.0,Macintosh,Firefox,48,OS X,10.6
4,1,"""",html-keyboard-response,38,235051,0.0-2.0-3.2,null,"<p style=""font-size: 48px;"">ready?</p>",null,"""","""","""","""","""","""","""","""","""","""","""","""","""","""",9/13/2020 11:44,68.184.194.251,Mozilla/5.0 (Macintosh; Intel Mac OS X 10.6; rv:48.0) Gecko/20100101 Firefox/48.0,Macintosh,Firefox,48,OS X,10.6
4,1,"""",html-keyboard-response,39,236553,0.0-2.0-4.2,null,"<p style=""font-size: 48px;"">ready?</p>",null,"""","""","""","""","""","""","""","""","""","""","""","""","""","""",9/13/2020 11:44,68.184.194.251,Mozilla/5.0 (Macintosh; Intel Mac OS X 10.6; rv:48.0) Gecko/20100101 Firefox/48.0,Macintosh,Firefox,48,OS X,10.6
4,1,"""",animation,40,246850,0.0-2.0-5.2,10296.015,"""","""","""","""","""","""","""","""","""","[{""stimulus"":""img/013_L_filler_absent.jpg"",""time"":321.95000000001164},{""stimulus"":""blank"",""time"":562.3050000000221},{""stimulus"":""img/013_L_filler_absent.jpg"",""time"":641.1600000000035},{""stimulus"":""blank"",""time"":882.4250000000175},{""stimulus"":""img/013_L_filler_present.jpg"",""time"":960.7550000000047},{""stimulus"":""blank"",""time"":1201.445000000007},{""stimulus"":""img/013_L_filler_present.jpg"",""time"":1281.1300000000047},{""stimulus"":""blank"",""time"":1523.0100000000093},{""stimulus"":""img/013_L_filler_absent.jpg"",""time"":1600.155000000028},{""stimulus"":""blank"",""time"":1841.8950000000186},{""stimulus"":""img/013_L_filler_absent.jpg"",""time"":1920.4700000000012},{""stimulus"":""blank"",""time"":2162.0650000000023},{""stimulus"":""img/013_L_filler_present.jpg"",""time"":2241.0200000000186},{""stimulus"":""blank"",""time"":2482.1500000000233},{""stimulus"":""img/013_L_filler_present.jpg"",""time"":2560.0200000000186},{""stimulus"":""blank"",""time"":2800.5750000000116},{""stimulus"":""img/013_L_filler_absent.jpg"",""time"":2880.8950000000186},{""stimulus"":""blank"",""time"":3122.735000000015},{""stimulus"":""img/013_L_filler_absent.jpg"",""time"":3200.6450000000186},{""stimulus"":""blank"",""time"":3442.530000000028},{""stimulus"":""img/013_L_filler_present.jpg"",""time"":3521.100000000006},{""stimulus"":""blank"",""time"":3762.390000000014},{""stimulus"":""img/013_L_filler_present.jpg"",""time"":3840.545000000013},{""stimulus"":""blank"",""time"":4081.735000000015},{""stimulus"":""img/013_L_filler_absent.jpg"",""time"":4160.530000000028},{""stimulus"":""blank"",""time"":4401.820000000007},{""stimulus"":""img/013_L_filler_absent.jpg"",""time"":4480.86500000002},{""stimulus"":""blank"",""time"":4722.290000000008},{""stimulus"":""img/013_L_filler_present.jpg"",""time"":4800.595000000001},{""stimulus"":""blank"",""time"":5041.385000000009},{""stimulus"":""img/013_L_filler_present.jpg"",""time"":5120.6050000000105},{""stimulus"":""blank"",""time"":5362.315000000002},{""stimulus"":""img/013_L_filler_absent.jpg"",""time"":5440.1050000000105},{""stimulus"":""blank"",""time"":5681.790000000008},{""stimulus"":""img/013_L_filler_absent.jpg"",""time"":5760.075000000012},{""stimulus"":""blank"",""time"":6001.985000000015},{""stimulus"":""img/013_L_filler_present.jpg"",""time"":6080.005000000005},{""stimulus"":""blank"",""time"":6321.255000000005},{""stimulus"":""img/013_L_filler_present.jpg"",""time"":6400.110000000015},{""stimulus"":""blank"",""time"":6641.850000000006},{""stimulus"":""img/013_L_filler_absent.jpg"",""time"":6720.185000000027},{""stimulus"":""blank"",""time"":6961.1050000000105},{""stimulus"":""img/013_L_filler_absent.jpg"",""time"":7040.020000000019},{""stimulus"":""blank"",""time"":7280.540000000008},{""stimulus"":""img/013_L_filler_present.jpg"",""time"":7359.9250000000175},{""stimulus"":""blank"",""time"":7601.600000000006},{""stimulus"":""img/013_L_filler_present.jpg"",""time"":7680.725000000006},{""stimulus"":""blank"",""time"":7922.265000000014},{""stimulus"":""img/013_L_filler_absent.jpg"",""time"":8001.045000000013},{""stimulus"":""blank"",""time"":8241.810000000027},{""stimulus"":""img/013_L_filler_absent.jpg"",""time"":8320.405000000028},{""stimulus"":""blank"",""time"":8562.35500000001},{""stimulus"":""img/013_L_filler_present.jpg"",""time"":8640.185000000027},{""stimulus"":""blank"",""time"":8882.10500000001},{""stimulus"":""img/013_L_filler_present.jpg"",""time"":8960.660000000003},{""stimulus"":""blank"",""time"":9202.560000000027},{""stimulus"":""img/013_L_filler_absent.jpg"",""time"":9280.860000000015},{""stimulus"":""blank"",""time"":9522.675000000017},{""stimulus"":""img/013_L_filler_absent.jpg"",""time"":9600.400000000023},{""stimulus"":""blank"",""time"":9841.86500000002},{""stimulus"":""img/013_L_filler_present.jpg"",""time"":9920.025000000023},{""stimulus"":""blank"",""time"":10160.895000000019},{""stimulus"":""img/013_L_filler_present.jpg"",""time"":10240.26000000001}]","[{""key_press"":32,""rt"":10295.704999999987,""stimulus"":""img/013_L_filler_present.jpg""}]","""","""","0,1","""","""",9/13/2020 11:44,68.184.194.251,Mozilla/5.0 (Macintosh; Intel Mac OS X 10.6; rv:48.0) Gecko/20100101 Firefox/48.0,Macintosh,Firefox,48,OS X,10.6
4,1,"""",image-button-response,41,250258,0.0-2.0-6.2,3399.505,detection grids/013L.jpg,"""","""","""","""","""","""","""","""","""","""",0,"""","""",TRUE,"""",9/13/2020 11:44,68.184.194.251,Mozilla/5.0 (Macintosh; Intel Mac OS X 10.6; rv:48.0) Gecko/20100101 Firefox/48.0,Macintosh,Firefox,48,OS X,10.6
4,1,"""",image-button-response,42,250962,0.0-2.0-7.2,702.345,detection grids/013L.jpg,"""","""","""","""","""","""","""","""","""","""",1,"""","""",TRUE,"""",9/13/2020 11:44,68.184.194.251,Mozilla/5.0 (Macintosh; Intel Mac OS X 10.6; rv:48.0) Gecko/20100101 Firefox/48.0,Macintosh,Firefox,48,OS X,10.6
4,1,"""",call-function,43,250970,0.0-2.0-0.3,"""","""","""","""","""","""","""","""","""","""","""","""","""",[object Object],"""","""","""",9/13/2020 11:44,68.184.194.251,Mozilla/5.0 (Macintosh; Intel Mac OS X 10.6; rv:48.0) Gecko/20100101 Firefox/48.0,Macintosh,Firefox,48,OS X,10.6
4,1,"""",html-keyboard-response,44,250973,0.0-2.0-1.3,"""","""","""","""","""","""","""","""","""","""","""","""","""",[object Object],"""","""","""",9/13/2020 11:44,68.184.194.251,Mozilla/5.0 (Macintosh; Intel Mac OS X 10.6; rv:48.0) Gecko/20100101 Firefox/48.0,Macintosh,Firefox,48,OS X,10.6
4,1,"""",html-keyboard-response,45,251975,0.0-2.0-2.3,null,"<p style=""font-size: 48px;"">ready?</p>",null,"""","""","""","""","""","""","""","""","""","""","""","""","""","""",9/13/2020 11:44,68.184.194.251,Mozilla/5.0 (Macintosh; Intel Mac OS X 10.6; rv:48.0) Gecko/20100101 Firefox/48.0,Macintosh,Firefox,48,OS X,10.6
4,1,"""",html-keyboard-response,46,253477,0.0-2.0-3.3,null,"<p style=""font-size: 48px;"">ready?</p>",null,"""","""","""","""","""","""","""","""","""","""","""","""","""","""",9/13/2020 11:44,68.184.194.251,Mozilla/5.0 (Macintosh; Intel Mac OS X 10.6; rv:48.0) Gecko/20100101 Firefox/48.0,Macintosh,Firefox,48,OS X,10.6
4,1,"""",html-keyboard-response,47,254979,0.0-2.0-4.3,null,"<p style=""font-size: 48px;"">ready?</p>",null,"""","""","""","""","""","""","""","""","""","""","""","""","""","""",9/13/2020 11:44,68.184.194.251,Mozilla/5.0 (Macintosh; Intel Mac OS X 10.6; rv:48.0) Gecko/20100101 Firefox/48.0,Macintosh,Firefox,48,OS X,10.6
4,1,"""",animation,48,269306,0.0-2.0-5.3,14323.095,"""","""","""","""","""","""","""","""","""","[{""stimulus"":""img/022_R_filler_absent.jpg"",""time"":320.4349999999977},{""stimulus"":""blank"",""time"":561.1300000000047},{""stimulus"":""img/022_R_filler_absent.jpg"",""time"":640.1650000000373},{""stimulus"":""blank"",""time"":881.125},{""stimulus"":""img/022_R_filler_present.jpg"",""time"":960.2300000000396},{""stimulus"":""blank"",""time"":1200.265000000014},{""stimulus"":""img/022_R_filler_present.jpg"",""time"":1280.4500000000116},{""stimulus"":""blank"",""time"":1522.3250000000116},{""stimulus"":""img/022_R_filler_absent.jpg"",""time"":1600.0400000000373},{""stimulus"":""blank"",""time"":1841.3450000000303},{""stimulus"":""img/022_R_filler_absent.jpg"",""time"":1919.710000000021},{""stimulus"":""blank"",""time"":2161.375},{""stimulus"":""img/022_R_filler_present.jpg"",""time"":2240.390000000014},{""stimulus"":""blank"",""time"":2481.9500000000116},{""stimulus"":""img/022_R_filler_present.jpg"",""time"":2560.875},{""stimulus"":""blank"",""time"":2801.8150000000023},{""stimulus"":""img/022_R_filler_absent.jpg"",""time"":2880.570000000007},{""stimulus"":""blank"",""time"":3121.8250000000116},{""stimulus"":""img/022_R_filler_absent.jpg"",""time"":3200.234999999986},{""stimulus"":""blank"",""time"":3441.570000000007},{""stimulus"":""img/022_R_filler_present.jpg"",""time"":3520.460000000021},{""stimulus"":""blank"",""time"":3761.8300000000163},{""stimulus"":""img/022_R_filler_present.jpg"",""time"":3840.030000000028},{""stimulus"":""blank"",""time"":4081.125},{""stimulus"":""img/022_R_filler_absent.jpg"",""time"":4159.489999999991},{""stimulus"":""blank"",""time"":4400.984999999986},{""stimulus"":""img/022_R_filler_absent.jpg"",""time"":4480.515000000014},{""stimulus"":""blank"",""time"":4721.670000000042},{""stimulus"":""img/022_R_filler_present.jpg"",""time"":4800.330000000016},{""stimulus"":""blank"",""time"":5041.924999999988},{""stimulus"":""img/022_R_filler_present.jpg"",""time"":5120.850000000035},{""stimulus"":""blank"",""time"":5362.420000000042},{""stimulus"":""img/022_R_filler_absent.jpg"",""time"":5440.47000000003},{""stimulus"":""blank"",""time"":5681.385000000009},{""stimulus"":""img/022_R_filler_absent.jpg"",""time"":5759.994999999995},{""stimulus"":""blank"",""time"":6001.690000000002},{""stimulus"":""img/022_R_filler_present.jpg"",""time"":6079.575000000012},{""stimulus"":""blank"",""time"":6320.535000000033},{""stimulus"":""img/022_R_filler_present.jpg"",""time"":6400.190000000002},{""stimulus"":""blank"",""time"":6641.859999999986},{""stimulus"":""img/022_R_filler_absent.jpg"",""time"":6720.47000000003},{""stimulus"":""blank"",""time"":6961.545000000042},{""stimulus"":""img/022_R_filler_absent.jpg"",""time"":7039.940000000002},{""stimulus"":""blank"",""time"":7281.950000000012},{""stimulus"":""img/022_R_filler_present.jpg"",""time"":7360.450000000012},{""stimulus"":""blank"",""time"":7602.09500000003},{""stimulus"":""img/022_R_filler_present.jpg"",""time"":7680.72000000003},{""stimulus"":""blank"",""time"":7922.295000000042},{""stimulus"":""img/022_R_filler_absent.jpg"",""time"":8001.114999999991},{""stimulus"":""blank"",""time"":8242.695000000007},{""stimulus"":""img/022_R_filler_absent.jpg"",""time"":8319.809999999998},{""stimulus"":""blank"",""time"":8561.770000000019},{""stimulus"":""img/022_R_filler_present.jpg"",""time"":8640.51000000001},{""stimulus"":""blank"",""time"":8881.73999999999},{""stimulus"":""img/022_R_filler_present.jpg"",""time"":8960.559999999998},{""stimulus"":""blank"",""time"":9202.679999999993},{""stimulus"":""img/022_R_filler_absent.jpg"",""time"":9280.88500000001},{""stimulus"":""blank"",""time"":9522.405000000028},{""stimulus"":""img/022_R_filler_absent.jpg"",""time"":9600.5},{""stimulus"":""blank"",""time"":9842.434999999998},{""stimulus"":""img/022_R_filler_present.jpg"",""time"":9920.540000000037},{""stimulus"":""blank"",""time"":10162.515000000014},{""stimulus"":""img/022_R_filler_present.jpg"",""time"":10240.244999999995},{""stimulus"":""blank"",""time"":10481.494999999995},{""stimulus"":""img/022_R_filler_absent.jpg"",""time"":10560.085000000021},{""stimulus"":""blank"",""time"":10802.005000000005},{""stimulus"":""img/022_R_filler_absent.jpg"",""time"":10880.554999999993},{""stimulus"":""blank"",""time"":11121.840000000026},{""stimulus"":""img/022_R_filler_present.jpg"",""time"":11200.48999999999},{""stimulus"":""blank"",""time"":11441.820000000007},{""stimulus"":""img/022_R_filler_present.jpg"",""time"":11520.905000000028},{""stimulus"":""blank"",""time"":11762.610000000044},{""stimulus"":""img/022_R_filler_absent.jpg"",""time"":11840.485000000044},{""stimulus"":""blank"",""time"":12081.565000000002},{""stimulus"":""img/022_R_filler_absent.jpg"",""time"":12160.610000000044},{""stimulus"":""blank"",""time"":12402.155000000028},{""stimulus"":""img/022_R_filler_present.jpg"",""time"":12480.684999999998},{""stimulus"":""blank"",""time"":12721.744999999995},{""stimulus"":""img/022_R_filler_present.jpg"",""time"":12801.075000000012},{""stimulus"":""blank"",""time"":13042.665000000037},{""stimulus"":""img/022_R_filler_absent.jpg"",""time"":13119.780000000028},{""stimulus"":""blank"",""time"":13360.280000000028},{""stimulus"":""img/022_R_filler_absent.jpg"",""time"":13441.005000000005},{""stimulus"":""blank"",""time"":13682.360000000044},{""stimulus"":""img/022_R_filler_present.jpg"",""time"":13759.700000000012},{""stimulus"":""blank"",""time"":14001.160000000033},{""stimulus"":""img/022_R_filler_present.jpg"",""time"":14080.875},{""stimulus"":""blank"",""time"":14322.429999999993}]","[{""key_press"":32,""rt"":14322.984999999986,""stimulus"":""blank""}]","""","""","3,2","""","""",9/13/2020 11:44,68.184.194.251,Mozilla/5.0 (Macintosh; Intel Mac OS X 10.6; rv:48.0) Gecko/20100101 Firefox/48.0,Macintosh,Firefox,48,OS X,10.6
4,1,"""",image-button-response,49,272274,0.0-2.0-6.3,2963.82,detection grids/022R.jpg,"""","""","""","""","""","""","""","""","""","""",3,"""","""",TRUE,"""",9/13/2020 11:44,68.184.194.251,Mozilla/5.0 (Macintosh; Intel Mac OS X 10.6; rv:48.0) Gecko/20100101 Firefox/48.0,Macintosh,Firefox,48,OS X,10.6
4,1,"""",image-button-response,50,272786,0.0-2.0-7.3,505.945,detection grids/022R.jpg,"""","""","""","""","""","""","""","""","""","""",2,"""","""",TRUE,"""",9/13/2020 11:44,68.184.194.251,Mozilla/5.0 (Macintosh; Intel Mac OS X 10.6; rv:48.0) Gecko/20100101 Firefox/48.0,Macintosh,Firefox,48,OS X,10.6
4,1,"""",call-function,51,272789,0.0-2.0-0.4,"""","""","""","""","""","""","""","""","""","""","""","""","""",[object Object],"""","""","""",9/13/2020 11:44,68.184.194.251,Mozilla/5.0 (Macintosh; Intel Mac OS X 10.6; rv:48.0) Gecko/20100101 Firefox/48.0,Macintosh,Firefox,48,OS X,10.6
4,1,"""",html-keyboard-response,52,272793,0.0-2.0-1.4,"""","""","""","""","""","""","""","""","""","""","""","""","""",[object Object],"""","""","""",9/13/2020 11:44,68.184.194.251,Mozilla/5.0 (Macintosh; Intel Mac OS X 10.6; rv:48.0) Gecko/20100101 Firefox/48.0,Macintosh,Firefox,48,OS X,10.6
4,1,"""",html-keyboard-response,53,273794,0.0-2.0-2.4,null,"<p style=""font-size: 48px;"">ready?</p>",null,"""","""","""","""","""","""","""","""","""","""","""","""","""","""",9/13/2020 11:44,68.184.194.251,Mozilla/5.0 (Macintosh; Intel Mac OS X 10.6; rv:48.0) Gecko/20100101 Firefox/48.0,Macintosh,Firefox,48,OS X,10.6
4,1,"""",html-keyboard-response,54,275295,0.0-2.0-3.4,null,"<p style=""font-size: 48px;"">ready?</p>",null,"""","""","""","""","""","""","""","""","""","""","""","""","""","""",9/13/2020 11:44,68.184.194.251,Mozilla/5.0 (Macintosh; Intel Mac OS X 10.6; rv:48.0) Gecko/20100101 Firefox/48.0,Macintosh,Firefox,48,OS X,10.6
4,1,"""",html-keyboard-response,55,276798,0.0-2.0-4.4,null,"<p style=""font-size: 48px;"">ready?</p>",null,"""","""","""","""","""","""","""","""","""","""","""","""","""","""",9/13/2020 11:44,68.184.194.251,Mozilla/5.0 (Macintosh; Intel Mac OS X 10.6; rv:48.0) Gecko/20100101 Firefox/48.0,Macintosh,Firefox,48,OS X,10.6
4,1,"""",animation,56,284497,0.0-2.0-5.4,7693.72,"""","""","""","""","""","""","""","""","""","[{""stimulus"":""img/020_R_filler_absent.jpg"",""time"":321.9400000000023},{""stimulus"":""blank"",""time"":562.0650000000023},{""stimulus"":""img/020_R_filler_absent.jpg"",""time"":640.570000000007},{""stimulus"":""blank"",""time"":882.3850000000093},{""stimulus"":""img/020_R_filler_present.jpg"",""time"":960.7449999999953},{""stimulus"":""blank"",""time"":1200.8800000000047},{""stimulus"":""img/020_R_filler_present.jpg"",""time"":1281.0100000000093},{""stimulus"":""blank"",""time"":1522.1699999999837},{""stimulus"":""img/020_R_filler_absent.jpg"",""time"":1600.0100000000093},{""stimulus"":""blank"",""time"":1841.8300000000163},{""stimulus"":""img/020_R_filler_absent.jpg"",""time"":1920.0599999999977},{""stimulus"":""blank"",""time"":2161.3800000000047},{""stimulus"":""img/020_R_filler_present.jpg"",""time"":2240.0100000000093},{""stimulus"":""blank"",""time"":2481.5599999999977},{""stimulus"":""img/020_R_filler_present.jpg"",""time"":2560.515000000014},{""stimulus"":""blank"",""time"":2801.8400000000256},{""stimulus"":""img/020_R_filler_absent.jpg"",""time"":2880.289999999979},{""stimulus"":""blank"",""time"":3121.9349999999977},{""stimulus"":""img/020_R_filler_absent.jpg"",""time"":3199.945000000007},{""stimulus"":""blank"",""time"":3441.429999999993},{""stimulus"":""img/020_R_filler_present.jpg"",""time"":3520.7249999999767},{""stimulus"":""blank"",""time"":3762.1199999999953},{""stimulus"":""img/020_R_filler_present.jpg"",""time"":3841.2150000000256},{""stimulus"":""blank"",""time"":4082.9799999999814},{""stimulus"":""img/020_R_filler_absent.jpg"",""time"":4160.650000000023},{""stimulus"":""blank"",""time"":4402.575000000012},{""stimulus"":""img/020_R_filler_absent.jpg"",""time"":4480.409999999974},{""stimulus"":""blank"",""time"":4721.515000000014},{""stimulus"":""img/020_R_filler_present.jpg"",""time"":4800.469999999972},{""stimulus"":""blank"",""time"":5041.765000000014},{""stimulus"":""img/020_R_filler_present.jpg"",""time"":5120.525000000023},{""stimulus"":""blank"",""time"":5362.335000000021},{""stimulus"":""img/020_R_filler_absent.jpg"",""time"":5440.320000000007},{""stimulus"":""blank"",""time"":5681.705000000016},{""stimulus"":""img/020_R_filler_absent.jpg"",""time"":5759.969999999972},{""stimulus"":""blank"",""time"":6001.145000000019},{""stimulus"":""img/020_R_filler_present.jpg"",""time"":6080.940000000002},{""stimulus"":""blank"",""time"":6321.815000000002},{""stimulus"":""img/020_R_filler_present.jpg"",""time"":6401.174999999988},{""stimulus"":""blank"",""time"":6643.130000000005},{""stimulus"":""img/020_R_filler_absent.jpg"",""time"":6720.40499999997},{""stimulus"":""blank"",""time"":6961.799999999988},{""stimulus"":""img/020_R_filler_absent.jpg"",""time"":7040.15499999997},{""stimulus"":""blank"",""time"":7281.565000000002},{""stimulus"":""img/020_R_filler_present.jpg"",""time"":7359.880000000005},{""stimulus"":""blank"",""time"":7601.659999999974},{""stimulus"":""img/020_R_filler_present.jpg"",""time"":7680.650000000023}]","[{""key_press"":32,""rt"":7693.619999999995,""stimulus"":""img/020_R_filler_present.jpg""}]","""","""","3,2","""","""",9/13/2020 11:44,68.184.194.251,Mozilla/5.0 (Macintosh; Intel Mac OS X 10.6; rv:48.0) Gecko/20100101 Firefox/48.0,Macintosh,Firefox,48,OS X,10.6
4,1,"""",image-button-response,57,287313,0.0-2.0-6.4,2812.365,detection grids/020R.jpg,"""","""","""","""","""","""","""","""","""","""",3,"""","""",TRUE,"""",9/13/2020 11:44,68.184.194.251,Mozilla/5.0 (Macintosh; Intel Mac OS X 10.6; rv:48.0) Gecko/20100101 Firefox/48.0,Macintosh,Firefox,48,OS X,10.6
4,1,"""",image-button-response,58,461517,0.0-2.0-7.4,174201.775,detection grids/020R.jpg,"""","""","""","""","""","""","""","""","""","""",2,"""","""",TRUE,"""",9/13/2020 11:44,68.184.194.251,Mozilla/5.0 (Macintosh; Intel Mac OS X 10.6; rv:48.0) Gecko/20100101 Firefox/48.0,Macintosh,Firefox,48,OS X,10.6
4,1,"""",call-function,59,461521,0.0-2.0-0.5,"""","""","""","""","""","""","""","""","""","""","""","""","""",[object Object],"""","""","""",9/13/2020 11:44,68.184.194.251,Mozilla/5.0 (Macintosh; Intel Mac OS X 10.6; rv:48.0) Gecko/20100101 Firefox/48.0,Macintosh,Firefox,48,OS X,10.6
4,1,"""",html-keyboard-response,60,461533,0.0-2.0-1.5,"""","""","""","""","""","""","""","""","""","""","""","""","""",[object Object],"""","""","""",9/13/2020 11:44,68.184.194.251,Mozilla/5.0 (Macintosh; Intel Mac OS X 10.6; rv:48.0) Gecko/20100101 Firefox/48.0,Macintosh,Firefox,48,OS X,10.6
4,1,"""",html-keyboard-response,61,462534,0.0-2.0-2.5,null,"<p style=""font-size: 48px;"">ready?</p>",null,"""","""","""","""","""","""","""","""","""","""","""","""","""","""",9/13/2020 11:44,68.184.194.251,Mozilla/5.0 (Macintosh; Intel Mac OS X 10.6; rv:48.0) Gecko/20100101 Firefox/48.0,Macintosh,Firefox,48,OS X,10.6
4,1,"""",html-keyboard-response,62,464035,0.0-2.0-3.5,null,"<p style=""font-size: 48px;"">ready?</p>",null,"""","""","""","""","""","""","""","""","""","""","""","""","""","""",9/13/2020 11:44,68.184.194.251,Mozilla/5.0 (Macintosh; Intel Mac OS X 10.6; rv:48.0) Gecko/20100101 Firefox/48.0,Macintosh,Firefox,48,OS X,10.6
4,1,"""",html-keyboard-response,63,465539,0.0-2.0-4.5,null,"<p style=""font-size: 48px;"">ready?</p>",null,"""","""","""","""","""","""","""","""","""","""","""","""","""","""",9/13/2020 11:44,68.184.194.251,Mozilla/5.0 (Macintosh; Intel Mac OS X 10.6; rv:48.0) Gecko/20100101 Firefox/48.0,Macintosh,Firefox,48,OS X,10.6
4,1,"""",animation,64,477902,0.0-2.0-5.5,12356.94,"""","""","""","""","""","""","""","""","""","[{""stimulus"":""img/09_R_filler_absent.jpg"",""time"":321.8649999999907},{""stimulus"":""blank"",""time"":562.0799999999581},{""stimulus"":""img/09_R_filler_absent.jpg"",""time"":640.414999999979},{""stimulus"":""blank"",""time"":881.4549999999581},{""stimulus"":""img/09_R_filler_present.jpg"",""time"":960.4949999999953},{""stimulus"":""blank"",""time"":1201.4599999999627},{""stimulus"":""img/09_R_filler_present.jpg"",""time"":1280.1549999999697},{""stimulus"":""blank"",""time"":1521.7849999999744},{""stimulus"":""img/09_R_filler_absent.jpg"",""time"":1600.1300000000047},{""stimulus"":""blank"",""time"":1840.9500000000116},{""stimulus"":""img/09_R_filler_absent.jpg"",""time"":1919.7550000000047},{""stimulus"":""blank"",""time"":2160.9099999999744},{""stimulus"":""img/09_R_filler_present.jpg"",""time"":2240.9599999999627},{""stimulus"":""blank"",""time"":2481.6900000000023},{""stimulus"":""img/09_R_filler_present.jpg"",""time"":2561.0499999999884},{""stimulus"":""blank"",""time"":2803.219999999972},{""stimulus"":""img/09_R_filler_absent.jpg"",""time"":2879.5899999999674},{""stimulus"":""blank"",""time"":3120.7299999999814},{""stimulus"":""img/09_R_filler_absent.jpg"",""time"":3200.6049999999814},{""stimulus"":""blank"",""time"":3441.704999999958},{""stimulus"":""img/09_R_filler_present.jpg"",""time"":3520.4500000000116},{""stimulus"":""blank"",""time"":3762.109999999986},{""stimulus"":""img/09_R_filler_present.jpg"",""time"":3840.2000000000116},{""stimulus"":""blank"",""time"":4081.515000000014},{""stimulus"":""img/09_R_filler_absent.jpg"",""time"":4160.229999999981},{""stimulus"":""blank"",""time"":4401.940000000002},{""stimulus"":""img/09_R_filler_absent.jpg"",""time"":4479.844999999972},{""stimulus"":""blank"",""time"":4721.625},{""stimulus"":""img/09_R_filler_present.jpg"",""time"":4800.424999999988},{""stimulus"":""blank"",""time"":5042.169999999984},{""stimulus"":""img/09_R_filler_present.jpg"",""time"":5121.510000000009},{""stimulus"":""blank"",""time"":5363.424999999988},{""stimulus"":""img/09_R_filler_absent.jpg"",""time"":5440.594999999972},{""stimulus"":""blank"",""time"":5681.839999999967},{""stimulus"":""img/09_R_filler_absent.jpg"",""time"":5760.755000000005},{""stimulus"":""blank"",""time"":6002.005000000005},{""stimulus"":""img/09_R_filler_present.jpg"",""time"":6080.739999999991},{""stimulus"":""blank"",""time"":6322.589999999967},{""stimulus"":""img/09_R_filler_present.jpg"",""time"":6400.77999999997},{""stimulus"":""blank"",""time"":6642.789999999979},{""stimulus"":""img/09_R_filler_absent.jpg"",""time"":6721.25},{""stimulus"":""blank"",""time"":6963.209999999963},{""stimulus"":""img/09_R_filler_absent.jpg"",""time"":7040.700000000012},{""stimulus"":""blank"",""time"":7282.034999999974},{""stimulus"":""img/09_R_filler_present.jpg"",""time"":7360.630000000005},{""stimulus"":""blank"",""time"":7602.390000000014},{""stimulus"":""img/09_R_filler_present.jpg"",""time"":7680.244999999995},{""stimulus"":""blank"",""time"":7921.825000000012},{""stimulus"":""img/09_R_filler_absent.jpg"",""time"":7999.679999999993},{""stimulus"":""blank"",""time"":8240.729999999981},{""stimulus"":""img/09_R_filler_absent.jpg"",""time"":8320.219999999972},{""stimulus"":""blank"",""time"":8561.325000000012},{""stimulus"":""img/09_R_filler_present.jpg"",""time"":8640.209999999963},{""stimulus"":""blank"",""time"":8881.214999999967},{""stimulus"":""img/09_R_filler_present.jpg"",""time"":8959.63500000001},{""stimulus"":""blank"",""time"":9201.604999999981},{""stimulus"":""img/09_R_filler_absent.jpg"",""time"":9281.084999999963},{""stimulus"":""blank"",""time"":9522.434999999998},{""stimulus"":""img/09_R_filler_absent.jpg"",""time"":9600.589999999967},{""stimulus"":""blank"",""time"":9842.609999999986},{""stimulus"":""img/09_R_filler_present.jpg"",""time"":9920.714999999967},{""stimulus"":""blank"",""time"":10162.13500000001},{""stimulus"":""img/09_R_filler_present.jpg"",""time"":10240.784999999974},{""stimulus"":""blank"",""time"":10482.119999999995},{""stimulus"":""img/09_R_filler_absent.jpg"",""time"":10561.01999999996},{""stimulus"":""blank"",""time"":10802.094999999972},{""stimulus"":""img/09_R_filler_absent.jpg"",""time"":10879.934999999998},{""stimulus"":""blank"",""time"":11120.90499999997},{""stimulus"":""img/09_R_filler_present.jpg"",""time"":11201.469999999972},{""stimulus"":""blank"",""time"":11442.954999999958},{""stimulus"":""img/09_R_filler_present.jpg"",""time"":11520.859999999986},{""stimulus"":""blank"",""time"":11762.219999999972},{""stimulus"":""img/09_R_filler_absent.jpg"",""time"":11840.674999999988},{""stimulus"":""blank"",""time"":12082.39499999996},{""stimulus"":""img/09_R_filler_absent.jpg"",""time"":12160.914999999979}]","[{""key_press"":32,""rt"":12356.839999999967,""stimulus"":""img/09_R_filler_absent.jpg""}]","""","""","3,1","""","""",9/13/2020 11:44,68.184.194.251,Mozilla/5.0 (Macintosh; Intel Mac OS X 10.6; rv:48.0) Gecko/20100101 Firefox/48.0,Macintosh,Firefox,48,OS X,10.6
4,1,"""",image-button-response,65,480709,0.0-2.0-6.5,2803.52,detection grids/09R.jpg,"""","""","""","""","""","""","""","""","""","""",3,"""","""",TRUE,"""",9/13/2020 11:44,68.184.194.251,Mozilla/5.0 (Macintosh; Intel Mac OS X 10.6; rv:48.0) Gecko/20100101 Firefox/48.0,Macintosh,Firefox,48,OS X,10.6
4,1,"""",image-button-response,66,482677,0.0-2.0-7.5,1961.23,detection grids/09R.jpg,"""","""","""","""","""","""","""","""","""","""",1,"""","""",TRUE,"""",9/13/2020 11:44,68.184.194.251,Mozilla/5.0 (Macintosh; Intel Mac OS X 10.6; rv:48.0) Gecko/20100101 Firefox/48.0,Macintosh,Firefox,48,OS X,10.6
4,1,"""",call-function,67,482680,0.0-2.0-0.6,"""","""","""","""","""","""","""","""","""","""","""","""","""",[object Object],"""","""","""",9/13/2020 11:44,68.184.194.251,Mozilla/5.0 (Macintosh; Intel Mac OS X 10.6; rv:48.0) Gecko/20100101 Firefox/48.0,Macintosh,Firefox,48,OS X,10.6
4,1,"""",html-keyboard-response,68,482683,0.0-2.0-1.6,"""","""","""","""","""","""","""","""","""","""","""","""","""",[object Object],"""","""","""",9/13/2020 11:44,68.184.194.251,Mozilla/5.0 (Macintosh; Intel Mac OS X 10.6; rv:48.0) Gecko/20100101 Firefox/48.0,Macintosh,Firefox,48,OS X,10.6
4,1,"""",html-keyboard-response,69,483684,0.0-2.0-2.6,null,"<p style=""font-size: 48px;"">ready?</p>",null,"""","""","""","""","""","""","""","""","""","""","""","""","""","""",9/13/2020 11:44,68.184.194.251,Mozilla/5.0 (Macintosh; Intel Mac OS X 10.6; rv:48.0) Gecko/20100101 Firefox/48.0,Macintosh,Firefox,48,OS X,10.6
4,1,"""",html-keyboard-response,70,485186,0.0-2.0-3.6,null,"<p style=""font-size: 48px;"">ready?</p>",null,"""","""","""","""","""","""","""","""","""","""","""","""","""","""",9/13/2020 11:44,68.184.194.251,Mozilla/5.0 (Macintosh; Intel Mac OS X 10.6; rv:48.0) Gecko/20100101 Firefox/48.0,Macintosh,Firefox,48,OS X,10.6
4,1,"""",html-keyboard-response,71,486692,0.0-2.0-4.6,null,"<p style=""font-size: 48px;"">ready?</p>",null,"""","""","""","""","""","""","""","""","""","""","""","""","""","""",9/13/2020 11:44,68.184.194.251,Mozilla/5.0 (Macintosh; Intel Mac OS X 10.6; rv:48.0) Gecko/20100101 Firefox/48.0,Macintosh,Firefox,48,OS X,10.6
4,1,"""",animation,72,489468,0.0-2.0-5.6,2774.89,"""","""","""","""","""","""","""","""","""","[{""stimulus"":""img/017_R_filler_absent.jpg"",""time"":321.8150000000023},{""stimulus"":""blank"",""time"":562.0449999999837},{""stimulus"":""img/017_R_filler_absent.jpg"",""time"":640.5900000000256},{""stimulus"":""blank"",""time"":881.7399999999907},{""stimulus"":""img/017_R_filler_present.jpg"",""time"":960.6599999999744},{""stimulus"":""blank"",""time"":1201.4650000000256},{""stimulus"":""img/017_R_filler_present.jpg"",""time"":1280.155000000028},{""stimulus"":""blank"",""time"":1521.1149999999907},{""stimulus"":""img/017_R_filler_absent.jpg"",""time"":1600.460000000021},{""stimulus"":""blank"",""time"":1842.0250000000233},{""stimulus"":""img/017_R_filler_absent.jpg"",""time"":1920.8950000000186},{""stimulus"":""blank"",""time"":2162.530000000028},{""stimulus"":""img/017_R_filler_present.jpg"",""time"":2241.3150000000023},{""stimulus"":""blank"",""time"":2482.2249999999767},{""stimulus"":""img/017_R_filler_present.jpg"",""time"":2560.2849999999744}]","[{""key_press"":32,""rt"":2774.7849999999744,""stimulus"":""img/017_R_filler_present.jpg""}]","""","""","2,0","""","""",9/13/2020 11:44,68.184.194.251,Mozilla/5.0 (Macintosh; Intel Mac OS X 10.6; rv:48.0) Gecko/20100101 Firefox/48.0,Macintosh,Firefox,48,OS X,10.6
4,1,"""",image-button-response,73,493180,0.0-2.0-6.6,3703.515,detection grids/017R.jpg,"""","""","""","""","""","""","""","""","""","""",2,"""","""",TRUE,"""",9/13/2020 11:44,68.184.194.251,Mozilla/5.0 (Macintosh; Intel Mac OS X 10.6; rv:48.0) Gecko/20100101 Firefox/48.0,Macintosh,Firefox,48,OS X,10.6
4,1,"""",image-button-response,74,495508,0.0-2.0-7.6,2325.235,detection grids/017R.jpg,"""","""","""","""","""","""","""","""","""","""",0,"""","""",TRUE,"""",9/13/2020 11:44,68.184.194.251,Mozilla/5.0 (Macintosh; Intel Mac OS X 10.6; rv:48.0) Gecko/20100101 Firefox/48.0,Macintosh,Firefox,48,OS X,10.6
4,1,"""",call-function,75,495516,0.0-2.0-0.7,"""","""","""","""","""","""","""","""","""","""","""","""","""",[object Object],"""","""","""",9/13/2020 11:44,68.184.194.251,Mozilla/5.0 (Macintosh; Intel Mac OS X 10.6; rv:48.0) Gecko/20100101 Firefox/48.0,Macintosh,Firefox,48,OS X,10.6
4,1,"""",html-keyboard-response,76,495518,0.0-2.0-1.7,"""","""","""","""","""","""","""","""","""","""","""","""","""",[object Object],"""","""","""",9/13/2020 11:44,68.184.194.251,Mozilla/5.0 (Macintosh; Intel Mac OS X 10.6; rv:48.0) Gecko/20100101 Firefox/48.0,Macintosh,Firefox,48,OS X,10.6
4,1,"""",html-keyboard-response,77,496519,0.0-2.0-2.7,null,"<p style=""font-size: 48px;"">ready?</p>",null,"""","""","""","""","""","""","""","""","""","""","""","""","""","""",9/13/2020 11:44,68.184.194.251,Mozilla/5.0 (Macintosh; Intel Mac OS X 10.6; rv:48.0) Gecko/20100101 Firefox/48.0,Macintosh,Firefox,48,OS X,10.6
4,1,"""",html-keyboard-response,78,498020,0.0-2.0-3.7,null,"<p style=""font-size: 48px;"">ready?</p>",null,"""","""","""","""","""","""","""","""","""","""","""","""","""","""",9/13/2020 11:44,68.184.194.251,Mozilla/5.0 (Macintosh; Intel Mac OS X 10.6; rv:48.0) Gecko/20100101 Firefox/48.0,Macintosh,Firefox,48,OS X,10.6
4,1,"""",html-keyboard-response,79,499522,0.0-2.0-4.7,null,"<p style=""font-size: 48px;"">ready?</p>",null,"""","""","""","""","""","""","""","""","""","""","""","""","""","""",9/13/2020 11:44,68.184.194.251,Mozilla/5.0 (Macintosh; Intel Mac OS X 10.6; rv:48.0) Gecko/20100101 Firefox/48.0,Macintosh,Firefox,48,OS X,10.6
4,1,"""",animation,80,504628,0.0-2.0-5.7,5100.57,"""","""","""","""","""","""","""","""","""","[{""stimulus"":""img/03_L_filler_absent.jpg"",""time"":321.6849999999977},{""stimulus"":""blank"",""time"":562.085000000021},{""stimulus"":""img/03_L_filler_absent.jpg"",""time"":640.2600000000093},{""stimulus"":""blank"",""time"":882.1350000000093},{""stimulus"":""img/03_L_filler_present.jpg"",""time"":960.4150000000373},{""stimulus"":""blank"",""time"":1200.804999999993},{""stimulus"":""img/03_L_filler_present.jpg"",""time"":1280.6350000000093},{""stimulus"":""blank"",""time"":1521.7449999999953},{""stimulus"":""img/03_L_filler_absent.jpg"",""time"":1600.3250000000116},{""stimulus"":""blank"",""time"":1840.7900000000373},{""stimulus"":""img/03_L_filler_absent.jpg"",""time"":1920.679999999993},{""stimulus"":""blank"",""time"":2160.8300000000163},{""stimulus"":""img/03_L_filler_present.jpg"",""time"":2241.3250000000116},{""stimulus"":""blank"",""time"":2481.850000000035},{""stimulus"":""img/03_L_filler_present.jpg"",""time"":2560.475000000035},{""stimulus"":""blank"",""time"":2800.5900000000256},{""stimulus"":""img/03_L_filler_absent.jpg"",""time"":2880.5750000000116},{""stimulus"":""blank"",""time"":3122.0200000000186},{""stimulus"":""img/03_L_filler_absent.jpg"",""time"":3200.5},{""stimulus"":""blank"",""time"":3442.3300000000163},{""stimulus"":""img/03_L_filler_present.jpg"",""time"":3520.1650000000373},{""stimulus"":""blank"",""time"":3761.600000000035},{""stimulus"":""img/03_L_filler_present.jpg"",""time"":3840.4700000000303},{""stimulus"":""blank"",""time"":4081.7300000000396},{""stimulus"":""img/03_L_filler_absent.jpg"",""time"":4160.865000000049},{""stimulus"":""blank"",""time"":4402.100000000035},{""stimulus"":""img/03_L_filler_absent.jpg"",""time"":4481.045000000042},{""stimulus"":""blank"",""time"":4722.375},{""stimulus"":""img/03_L_filler_present.jpg"",""time"":4800.505000000005},{""stimulus"":""blank"",""time"":5042.340000000026}]","[{""key_press"":32,""rt"":5100.450000000012,""stimulus"":""blank""}]","""","""","1,2","""","""",9/13/2020 11:44,68.184.194.251,Mozilla/5.0 (Macintosh; Intel Mac OS X 10.6; rv:48.0) Gecko/20100101 Firefox/48.0,Macintosh,Firefox,48,OS X,10.6
4,1,"""",image-button-response,81,507884,0.0-2.0-6.7,3252.185,detection grids/03L.jpg,"""","""","""","""","""","""","""","""","""","""",1,"""","""",TRUE,"""",9/13/2020 11:44,68.184.194.251,Mozilla/5.0 (Macintosh; Intel Mac OS X 10.6; rv:48.0) Gecko/20100101 Firefox/48.0,Macintosh,Firefox,48,OS X,10.6
4,1,"""",image-button-response,82,509868,0.0-2.0-7.7,1976.405,detection grids/03L.jpg,"""","""","""","""","""","""","""","""","""","""",2,"""","""",TRUE,"""",9/13/2020 11:44,68.184.194.251,Mozilla/5.0 (Macintosh; Intel Mac OS X 10.6; rv:48.0) Gecko/20100101 Firefox/48.0,Macintosh,Firefox,48,OS X,10.6
4,1,"""",call-function,83,509871,0.0-2.0-0.8,"""","""","""","""","""","""","""","""","""","""","""","""","""",[object Object],"""","""","""",9/13/2020 11:44,68.184.194.251,Mozilla/5.0 (Macintosh; Intel Mac OS X 10.6; rv:48.0) Gecko/20100101 Firefox/48.0,Macintosh,Firefox,48,OS X,10.6
4,1,"""",html-keyboard-response,84,509874,0.0-2.0-1.8,"""","""","""","""","""","""","""","""","""","""","""","""","""",[object Object],"""","""","""",9/13/2020 11:44,68.184.194.251,Mozilla/5.0 (Macintosh; Intel Mac OS X 10.6; rv:48.0) Gecko/20100101 Firefox/48.0,Macintosh,Firefox,48,OS X,10.6
4,1,"""",html-keyboard-response,85,510875,0.0-2.0-2.8,null,"<p style=""font-size: 48px;"">ready?</p>",null,"""","""","""","""","""","""","""","""","""","""","""","""","""","""",9/13/2020 11:44,68.184.194.251,Mozilla/5.0 (Macintosh; Intel Mac OS X 10.6; rv:48.0) Gecko/20100101 Firefox/48.0,Macintosh,Firefox,48,OS X,10.6
4,1,"""",html-keyboard-response,86,512377,0.0-2.0-3.8,null,"<p style=""font-size: 48px;"">ready?</p>",null,"""","""","""","""","""","""","""","""","""","""","""","""","""","""",9/13/2020 11:44,68.184.194.251,Mozilla/5.0 (Macintosh; Intel Mac OS X 10.6; rv:48.0) Gecko/20100101 Firefox/48.0,Macintosh,Firefox,48,OS X,10.6
4,1,"""",html-keyboard-response,87,513883,0.0-2.0-4.8,null,"<p style=""font-size: 48px;"">ready?</p>",null,"""","""","""","""","""","""","""","""","""","""","""","""","""","""",9/13/2020 11:44,68.184.194.251,Mozilla/5.0 (Macintosh; Intel Mac OS X 10.6; rv:48.0) Gecko/20100101 Firefox/48.0,Macintosh,Firefox,48,OS X,10.6
4,1,"""",animation,88,530379,0.0-2.0-5.8,16495.945,"""","""","""","""","""","""","""","""","""","[{""stimulus"":""img/018_L_filler_absent.jpg"",""time"":321.3550000000978},{""stimulus"":""blank"",""time"":562},{""stimulus"":""img/018_L_filler_absent.jpg"",""time"":640.625},{""stimulus"":""blank"",""time"":882.3699999999953},{""stimulus"":""img/018_L_filler_present.jpg"",""time"":960.734999999986},{""stimulus"":""blank"",""time"":1201.170000000042},{""stimulus"":""img/018_L_filler_present.jpg"",""time"":1281.2300000000978},{""stimulus"":""blank"",""time"":1522.609999999986},{""stimulus"":""img/018_L_filler_absent.jpg"",""time"":1599.8150000000605},{""stimulus"":""blank"",""time"":1840.3150000000605},{""stimulus"":""img/018_L_filler_absent.jpg"",""time"":1921.0850000000792},{""stimulus"":""blank"",""time"":2161.6300000000047},{""stimulus"":""img/018_L_filler_present.jpg"",""time"":2240.055000000051},{""stimulus"":""blank"",""time"":2480.875},{""stimulus"":""img/018_L_filler_present.jpg"",""time"":2560.0500000000466},{""stimulus"":""blank"",""time"":2801.210000000079},{""stimulus"":""img/018_L_filler_absent.jpg"",""time"":2880.375},{""stimulus"":""blank"",""time"":3121.82500000007},{""stimulus"":""img/018_L_filler_absent.jpg"",""time"":3199.9899999999907},{""stimulus"":""blank"",""time"":3441.234999999986},{""stimulus"":""img/018_L_filler_present.jpg"",""time"":3519.850000000093},{""stimulus"":""blank"",""time"":3761.9100000000326},{""stimulus"":""img/018_L_filler_present.jpg"",""time"":3840.840000000084},{""stimulus"":""blank"",""time"":4082.225000000093},{""stimulus"":""img/018_L_filler_absent.jpg"",""time"":4161.375},{""stimulus"":""blank"",""time"":4402.5},{""stimulus"":""img/018_L_filler_absent.jpg"",""time"":4479.925000000047},{""stimulus"":""blank"",""time"":4721.305000000051},{""stimulus"":""img/018_L_filler_present.jpg"",""time"":4800.984999999986},{""stimulus"":""blank"",""time"":5042.5650000000605},{""stimulus"":""img/018_L_filler_present.jpg"",""time"":5119.7050000000745},{""stimulus"":""blank"",""time"":5360.925000000047},{""stimulus"":""img/018_L_filler_absent.jpg"",""time"":5440.7050000000745},{""stimulus"":""blank"",""time"":5682.125},{""stimulus"":""img/018_L_filler_absent.jpg"",""time"":5760.364999999991},{""stimulus"":""blank"",""time"":6002.145000000019},{""stimulus"":""img/018_L_filler_present.jpg"",""time"":6080.119999999995},{""stimulus"":""blank"",""time"":6321.275000000023},{""stimulus"":""img/018_L_filler_present.jpg"",""time"":6400.25},{""stimulus"":""blank"",""time"":6641.520000000019},{""stimulus"":""img/018_L_filler_absent.jpg"",""time"":6720.445000000065},{""stimulus"":""blank"",""time"":6961.340000000084},{""stimulus"":""img/018_L_filler_absent.jpg"",""time"":7040.465000000084},{""stimulus"":""blank"",""time"":7281.410000000033},{""stimulus"":""img/018_L_filler_present.jpg"",""time"":7360.635000000009},{""stimulus"":""blank"",""time"":7602.100000000093},{""stimulus"":""img/018_L_filler_present.jpg"",""time"":7680.3300000000745},{""stimulus"":""blank"",""time"":7922.380000000005},{""stimulus"":""img/018_L_filler_absent.jpg"",""time"":7999.765000000014},{""stimulus"":""blank"",""time"":8241.560000000056},{""stimulus"":""img/018_L_filler_absent.jpg"",""time"":8321.020000000019},{""stimulus"":""blank"",""time"":8562.330000000075},{""stimulus"":""img/018_L_filler_present.jpg"",""time"":8639.555000000051},{""stimulus"":""blank"",""time"":8881.155000000028},{""stimulus"":""img/018_L_filler_present.jpg"",""time"":8960.630000000005},{""stimulus"":""blank"",""time"":9201.57500000007},{""stimulus"":""img/018_L_filler_absent.jpg"",""time"":9280.5},{""stimulus"":""blank"",""time"":9521.535000000033},{""stimulus"":""img/018_L_filler_absent.jpg"",""time"":9600.01000000001},{""stimulus"":""blank"",""time"":9842.025000000023},{""stimulus"":""img/018_L_filler_present.jpg"",""time"":9919.435000000056},{""stimulus"":""blank"",""time"":10161.170000000042},{""stimulus"":""img/018_L_filler_present.jpg"",""time"":10240.175000000047},{""stimulus"":""blank"",""time"":10482.330000000075},{""stimulus"":""img/018_L_filler_absent.jpg"",""time"":10560.540000000037},{""stimulus"":""blank"",""time"":10801.810000000056},{""stimulus"":""img/018_L_filler_absent.jpg"",""time"":10880.82500000007},{""stimulus"":""blank"",""time"":11121.925000000047},{""stimulus"":""img/018_L_filler_present.jpg"",""time"":11201.33500000008},{""stimulus"":""blank"",""time"":11442.875},{""stimulus"":""img/018_L_filler_present.jpg"",""time"":11520.820000000065},{""stimulus"":""blank"",""time"":11761.71000000008},{""stimulus"":""img/018_L_filler_absent.jpg"",""time"":11840.670000000042},{""stimulus"":""blank"",""time"":12081.840000000084},{""stimulus"":""img/018_L_filler_absent.jpg"",""time"":12161.025000000023},{""stimulus"":""blank"",""time"":12402.175000000047},{""stimulus"":""img/018_L_filler_present.jpg"",""time"":12480.375},{""stimulus"":""blank"",""time"":12721.415000000037},{""stimulus"":""img/018_L_filler_present.jpg"",""time"":12800.160000000033},{""stimulus"":""blank"",""time"":13041.46000000008},{""stimulus"":""img/018_L_filler_absent.jpg"",""time"":13119.83500000008},{""stimulus"":""blank"",""time"":13361.725000000093},{""stimulus"":""img/018_L_filler_absent.jpg"",""time"":13440.580000000075},{""stimulus"":""blank"",""time"":13681.96000000008},{""stimulus"":""img/018_L_filler_present.jpg"",""time"":13760.81500000006},{""stimulus"":""blank"",""time"":14002.670000000042},{""stimulus"":""img/018_L_filler_present.jpg"",""time"":14081.035000000033},{""stimulus"":""blank"",""time"":14322.650000000023},{""stimulus"":""img/018_L_filler_absent.jpg"",""time"":14399.98999999999},{""stimulus"":""blank"",""time"":14641.465000000084},{""stimulus"":""img/018_L_filler_absent.jpg"",""time"":14719.86499999999},{""stimulus"":""blank"",""time"":14961.570000000065},{""stimulus"":""img/018_L_filler_present.jpg"",""time"":15040.405000000028},{""stimulus"":""blank"",""time"":15281.705000000075},{""stimulus"":""img/018_L_filler_present.jpg"",""time"":15360.82500000007},{""stimulus"":""blank"",""time"":15602.01000000001},{""stimulus"":""img/018_L_filler_absent.jpg"",""time"":15680.744999999995},{""stimulus"":""blank"",""time"":15922.305000000051},{""stimulus"":""img/018_L_filler_absent.jpg"",""time"":16001.23999999999},{""stimulus"":""blank"",""time"":16242.925000000047},{""stimulus"":""img/018_L_filler_present.jpg"",""time"":16320.570000000065}]","[{""key_press"":32,""rt"":16495.69499999995,""stimulus"":""img/018_L_filler_present.jpg""}]","""","""","1,3","""","""",9/13/2020 11:44,68.184.194.251,Mozilla/5.0 (Macintosh; Intel Mac OS X 10.6; rv:48.0) Gecko/20100101 Firefox/48.0,Macintosh,Firefox,48,OS X,10.6
4,1,"""",image-button-response,89,533018,0.0-2.0-6.8,2630.455,detection grids/018L.jpg,"""","""","""","""","""","""","""","""","""","""",1,"""","""",TRUE,"""",9/13/2020 11:44,68.184.194.251,Mozilla/5.0 (Macintosh; Intel Mac OS X 10.6; rv:48.0) Gecko/20100101 Firefox/48.0,Macintosh,Firefox,48,OS X,10.6
4,1,"""",image-button-response,90,534531,0.0-2.0-7.8,1510.99,detection grids/018L.jpg,"""","""","""","""","""","""","""","""","""","""",3,"""","""",TRUE,"""",9/13/2020 11:44,68.184.194.251,Mozilla/5.0 (Macintosh; Intel Mac OS X 10.6; rv:48.0) Gecko/20100101 Firefox/48.0,Macintosh,Firefox,48,OS X,10.6
4,1,"""",call-function,91,534540,0.0-2.0-0.9,"""","""","""","""","""","""","""","""","""","""","""","""","""",[object Object],"""","""","""",9/13/2020 11:44,68.184.194.251,Mozilla/5.0 (Macintosh; Intel Mac OS X 10.6; rv:48.0) Gecko/20100101 Firefox/48.0,Macintosh,Firefox,48,OS X,10.6
4,1,"""",html-keyboard-response,92,534543,0.0-2.0-1.9,"""","""","""","""","""","""","""","""","""","""","""","""","""",[object Object],"""","""","""",9/13/2020 11:44,68.184.194.251,Mozilla/5.0 (Macintosh; Intel Mac OS X 10.6; rv:48.0) Gecko/20100101 Firefox/48.0,Macintosh,Firefox,48,OS X,10.6
4,1,"""",html-keyboard-response,93,535544,0.0-2.0-2.9,null,"<p style=""font-size: 48px;"">ready?</p>",null,"""","""","""","""","""","""","""","""","""","""","""","""","""","""",9/13/2020 11:44,68.184.194.251,Mozilla/5.0 (Macintosh; Intel Mac OS X 10.6; rv:48.0) Gecko/20100101 Firefox/48.0,Macintosh,Firefox,48,OS X,10.6
4,1,"""",html-keyboard-response,94,537046,0.0-2.0-3.9,null,"<p style=""font-size: 48px;"">ready?</p>",null,"""","""","""","""","""","""","""","""","""","""","""","""","""","""",9/13/2020 11:44,68.184.194.251,Mozilla/5.0 (Macintosh; Intel Mac OS X 10.6; rv:48.0) Gecko/20100101 Firefox/48.0,Macintosh,Firefox,48,OS X,10.6
4,1,"""",html-keyboard-response,95,538549,0.0-2.0-4.9,null,"<p style=""font-size: 48px;"">ready?</p>",null,"""","""","""","""","""","""","""","""","""","""","""","""","""","""",9/13/2020 11:44,68.184.194.251,Mozilla/5.0 (Macintosh; Intel Mac OS X 10.6; rv:48.0) Gecko/20100101 Firefox/48.0,Macintosh,Firefox,48,OS X,10.6
4,1,"""",animation,96,546323,0.0-2.0-5.9,7768.7,"""","""","""","""","""","""","""","""","""","[{""stimulus"":""img/05_L_filler_absent.jpg"",""time"":322.0700000000652},{""stimulus"":""blank"",""time"":562.3499999999767},{""stimulus"":""img/05_L_filler_absent.jpg"",""time"":639.859999999986},{""stimulus"":""blank"",""time"":881.5900000000838},{""stimulus"":""img/05_L_filler_present.jpg"",""time"":961.0900000000838},{""stimulus"":""blank"",""time"":1204.5900000000838},{""stimulus"":""img/05_L_filler_present.jpg"",""time"":1280.4250000000466},{""stimulus"":""blank"",""time"":1520.7249999999767},{""stimulus"":""img/05_L_filler_absent.jpg"",""time"":1600.140000000014},{""stimulus"":""blank"",""time"":1841.1350000000093},{""stimulus"":""img/05_L_filler_absent.jpg"",""time"":1919.890000000014},{""stimulus"":""blank"",""time"":2159.9150000000373},{""stimulus"":""img/05_L_filler_present.jpg"",""time"":2240.560000000056},{""stimulus"":""blank"",""time"":2482.180000000051},{""stimulus"":""img/05_L_filler_present.jpg"",""time"":2560.2050000000745},{""stimulus"":""blank"",""time"":2801.8150000000605},{""stimulus"":""img/05_L_filler_absent.jpg"",""time"":2880.685000000056},{""stimulus"":""blank"",""time"":3122.3649999999907},{""stimulus"":""img/05_L_filler_absent.jpg"",""time"":3200.984999999986},{""stimulus"":""blank"",""time"":3441.6350000000093},{""stimulus"":""img/05_L_filler_present.jpg"",""time"":3519.9100000000326},{""stimulus"":""blank"",""time"":3761.07500000007},{""stimulus"":""img/05_L_filler_present.jpg"",""time"":3840.7449999999953},{""stimulus"":""blank"",""time"":4082.320000000065},{""stimulus"":""img/05_L_filler_absent.jpg"",""time"":4160.545000000042},{""stimulus"":""blank"",""time"":4401.854999999981},{""stimulus"":""img/05_L_filler_absent.jpg"",""time"":4480.359999999986},{""stimulus"":""blank"",""time"":4721.364999999991},{""stimulus"":""img/05_L_filler_present.jpg"",""time"":4800.724999999977},{""stimulus"":""blank"",""time"":5041.800000000047},{""stimulus"":""img/05_L_filler_present.jpg"",""time"":5120.729999999981},{""stimulus"":""blank"",""time"":5362.195000000065},{""stimulus"":""img/05_L_filler_absent.jpg"",""time"":5440.724999999977},{""stimulus"":""blank"",""time"":5682.130000000005},{""stimulus"":""img/05_L_filler_absent.jpg"",""time"":5760.920000000042},{""stimulus"":""blank"",""time"":6002.900000000023},{""stimulus"":""img/05_L_filler_present.jpg"",""time"":6081.175000000047},{""stimulus"":""blank"",""time"":6322.130000000005},{""stimulus"":""img/05_L_filler_present.jpg"",""time"":6399.675000000047},{""stimulus"":""blank"",""time"":6641.425000000047},{""stimulus"":""img/05_L_filler_absent.jpg"",""time"":6721.010000000009},{""stimulus"":""blank"",""time"":6962.055000000051},{""stimulus"":""img/05_L_filler_absent.jpg"",""time"":7040.099999999977},{""stimulus"":""blank"",""time"":7280.4700000000885},{""stimulus"":""img/05_L_filler_present.jpg"",""time"":7359.854999999981},{""stimulus"":""blank"",""time"":7600.430000000051},{""stimulus"":""img/05_L_filler_present.jpg"",""time"":7681.0950000000885}]","[{""key_press"":32,""rt"":7768.614999999991,""stimulus"":""img/05_L_filler_present.jpg""}]","""","""","0,3","""","""",9/13/2020 11:44,68.184.194.251,Mozilla/5.0 (Macintosh; Intel Mac OS X 10.6; rv:48.0) Gecko/20100101 Firefox/48.0,Macintosh,Firefox,48,OS X,10.6
4,1,"""",image-button-response,97,549259,0.0-2.0-6.9,2932.58,detection grids/05L.jpg,"""","""","""","""","""","""","""","""","""","""",0,"""","""",TRUE,"""",9/13/2020 11:44,68.184.194.251,Mozilla/5.0 (Macintosh; Intel Mac OS X 10.6; rv:48.0) Gecko/20100101 Firefox/48.0,Macintosh,Firefox,48,OS X,10.6
4,1,"""",image-button-response,98,551427,0.0-2.0-7.9,2159.915,detection grids/05L.jpg,"""","""","""","""","""","""","""","""","""","""",3,"""","""",TRUE,"""",9/13/2020 11:44,68.184.194.251,Mozilla/5.0 (Macintosh; Intel Mac OS X 10.6; rv:48.0) Gecko/20100101 Firefox/48.0,Macintosh,Firefox,48,OS X,10.6
4,1,"""",call-function,99,551433,0.0-2.0-0.10,"""","""","""","""","""","""","""","""","""","""","""","""","""",[object Object],"""","""","""",9/13/2020 11:44,68.184.194.251,Mozilla/5.0 (Macintosh; Intel Mac OS X 10.6; rv:48.0) Gecko/20100101 Firefox/48.0,Macintosh,Firefox,48,OS X,10.6
4,1,"""",html-keyboard-response,100,551436,0.0-2.0-1.10,"""","""","""","""","""","""","""","""","""","""","""","""","""",[object Object],"""","""","""",9/13/2020 11:44,68.184.194.251,Mozilla/5.0 (Macintosh; Intel Mac OS X 10.6; rv:48.0) Gecko/20100101 Firefox/48.0,Macintosh,Firefox,48,OS X,10.6
4,1,"""",html-keyboard-response,101,552437,0.0-2.0-2.10,null,"<p style=""font-size: 48px;"">ready?</p>",null,"""","""","""","""","""","""","""","""","""","""","""","""","""","""",9/13/2020 11:44,68.184.194.251,Mozilla/5.0 (Macintosh; Intel Mac OS X 10.6; rv:48.0) Gecko/20100101 Firefox/48.0,Macintosh,Firefox,48,OS X,10.6
4,1,"""",html-keyboard-response,102,553939,0.0-2.0-3.10,null,"<p style=""font-size: 48px;"">ready?</p>",null,"""","""","""","""","""","""","""","""","""","""","""","""","""","""",9/13/2020 11:44,68.184.194.251,Mozilla/5.0 (Macintosh; Intel Mac OS X 10.6; rv:48.0) Gecko/20100101 Firefox/48.0,Macintosh,Firefox,48,OS X,10.6
4,1,"""",html-keyboard-response,103,555446,0.0-2.0-4.10,null,"<p style=""font-size: 48px;"">ready?</p>",null,"""","""","""","""","""","""","""","""","""","""","""","""","""","""",9/13/2020 11:44,68.184.194.251,Mozilla/5.0 (Macintosh; Intel Mac OS X 10.6; rv:48.0) Gecko/20100101 Firefox/48.0,Macintosh,Firefox,48,OS X,10.6
